t,roll,pitch,yaw,ax,ay,az,gx,gy,gz,status,lat,lon,alt,vx,vy,vz,x2060
0.2093,0.6397523283958435,2.9176583290100098,-39.43345642089844,-0.4626489281654358,0.11524195969104767,9.811370849609375,-0.0006912884418852627,0.00021077449491713196,0.000183243872015737,2,30.000003814697266,30.0000057220459,1269.8743896484375,-0.035584621131420135,-0.003366905963048339,0.006581226363778114,129.53366088867188
0.2094,0.6397765278816223,2.9175562858581543,-39.436431884765625,-0.4716947674751282,0.10779236257076263,9.800135612487793,0.000225887619308196,-0.00010987224959535524,1.8273516616318375e-05,2,30.000003814697266,30.0000057220459,1269.8743896484375,-0.035240039229393005,-0.0035664448514580727,0.006542850285768509,129.53074645996094
0.2095,0.6396932005882263,2.917264938354492,-39.439361572265625,-0.5113885998725891,0.15477508306503296,9.819859504699707,-0.00085769675206393,0.0002116650139214471,-3.748181552509777e-05,2,30.000003814697266,30.0000057220459,1269.8743896484375,-0.034912772476673126,-0.003486593486741185,0.0065511902794241905,129.527099609375
0.2096,,,,,,,,,,,,,,,,,
0.2096,0.6380799412727356,2.916433095932007,-39.448974609375,-0.4819694459438324,0.05794868245720863,9.822540283203125,-0.0025071618147194386,-0.00035764643689617515,-0.00010020936315413564,2,30.000003814697266,30.0000057220459,1269.8743896484375,-0.034697484225034714,-0.002790059894323349,0.006531537976115942,129.53546142578125
0.2097,0.6370088458061218,2.916317939758301,-39.45176696777344,-0.4835049510002136,0.013970980420708656,9.788485527038574,-0.002096022479236126,-0.0002529301564209163,-0.0007064519450068474,2,30.000003814697266,30.0000057220459,1269.8743896484375,-0.03495527058839798,-0.003407339798286557,0.006497951224446297,129.54417419433594
0.2097,0.6338977217674255,2.9164559841156006,-39.45831298828125,-0.5013390779495239,0.01593131385743618,9.802026748657227,0.00021849048789590597,0.0005451084580272436,-0.0007842889754101634,2,30.000003814697266,30.0000057220459,1269.8743896484375,-0.03589465096592903,-0.005060494877398014,0.006324705667793751,129.5645294189453
0.2098,0.6322333812713623,2.916826009750366,-39.46192932128906,-0.4870910048484802,0.07139048725366592,9.803940773010254,0.0009405988384969532,0.0009227890986949205,-0.0006843309383839369,2,30.000003814697266,30.0000057220459,1269.8743896484375,-0.03622092679142952,-0.00565642025321722,0.0062734633684158325,129.6111602783203
0.2098,0.6307268738746643,2.9172472953796387,-39.46592712402344,-0.4911811351776123,0.1428159475326538,9.805269241333008,0.0014356336323544383,0.0009615594753995538,-0.0008758945623412728,2,30.000003814697266,30.0000057220459,1269.8743896484375,-0.036091480404138565,-0.0058197337202727795,0.006231138948351145,129.60641479492188
0.2099,0.6296745538711548,2.9177961349487305,-39.47662353515625,-0.5182569026947021,0.2075149118900299,9.811874389648438,0.0009177977917715907,-0.00014042516704648733,0.0003559417964424938,2,30.000003814697266,30.0000057220459,1269.8743896484375,-0.03412271663546562,-0.003611068706959486,0.006402233149856329,129.57643127441406
0.2099,0.6335170865058899,2.917226552963257,-39.483642578125,-0.4952099323272705,0.06273817270994186,9.812644004821777,0.00039382954128086567,-0.00023156542738433927,0.0003802734427154064,2,30.000003814697266,30.0000057220459,1269.8743896484375,-0.03337729722261429,-0.0030319923534989357,0.006365890149027109,129.57469177246094
0.4105,0.6335528492927551,2.917154550552368,-39.49147033691406,-0.5134139657020569,0.09550894796848297,9.818831443786621,-0.0005937941605225205,-8.531935600331053e-05,0.00017048598965629935,2,30.000003814697266,30.0000057220459,1269.8743896484375,-0.03423880413174629,-0.003786774119362235,0.006512127351015806,129.5669708251953
0.4107,0.6330274343490601,2.917459726333618,-39.494171142578125,-0.5078182816505432,0.11986855417490005,9.803568840026855,-0.00016425906505901366,3.081277827732265e-05,0.00016765198961365968,2,30.000003814697266,30.0000057220459,1269.8743896484375,-0.034275442361831665,-0.0037389236968010664,0.006555734667927027,129.5675048828125
0.4107,,,,,,,,,,,,,,,,,
0.4107,0.6322092413902283,2.918311834335327,-39.501007080078125,-0.49060189723968506,0.11713068187236786,9.81124210357666,-0.0017088004387915134,-0.0002377181954216212,-0.00018609817198012024,2,30.000003814697266,30.0000057220459,1269.8743896484375,-0.03341274335980415,-0.0032724598422646523,0.006619317922741175,129.5548858642578
0.4108,0.6313051581382751,2.918426275253296,-39.5047607421875,-0.5236285924911499,0.07538636773824692,9.808701515197754,-0.0007507713744416833,8.821471965347882e-06,-2.402667814749293e-05,2,30.000003814697266,30.0000057220459,1269.8743896484375,-0.03352244943380356,-0.003284408478066325,0.006696552038192749,129.56468200683594
0.4108,0.6311701536178589,2.9187734127044678,-39.506683349609375,-0.5185065865516663,0.06990614533424377,9.802389144897461,0.00033859742688946426,3.212860974599607e-05,-0.00016852845146786422,2,30.000003814697266,30.0000057220459,1269.8743896484375,-0.03386986628174782,-0.0034024554770439863,0.00669204443693161,129.57183837890625
0.4109,0.6320239901542664,2.919788122177124,-39.51068115234375,-0.472806453704834,0.1042834222316742,9.815815925598145,0.0011552921496331692,0.0002465181751176715,0.00020933784253429621,2,30.000003814697266,30.0000057220459,1269.8743896484375,-0.03404451161623001,-0.0038435833994299173,0.006625436246395111,129.57009887695312
0.4109,0.6312409043312073,2.920292377471924,-39.51649475097656,-0.5125411748886108,0.14351122081279755,9.815606117248535,-0.0008465054561384022,3.7565197999356315e-05,-4.512156738201156e-05,2,30.000003814697266,30.0000057220459,1269.8743896484375,-0.03355415165424347,-0.0037720580585300922,0.006758991628885269,129.8535614013672
0.411,0.630734384059906,2.920555591583252,-39.52166748046875,-0.5181843042373657,0.14310045540332794,9.799156188964844,-0.0006084556225687265,0.0002228740486316383,4.855514271184802e-05,2,30.000003814697266,30.0000057220459,1269.8743896484375,-0.03329738974571228,-0.0034057139419019222,0.006771585904061794,129.8529815673828
0.4112,0.6307197213172913,2.920823335647583,-39.5277099609375,-0.49626410007476807,0.1371799260377884,9.81367301940918,-9.17762954486534e-05,-0.0004558537621051073,0.0002748462138697505,2,30.000003814697266,30.0000057220459,1269.8743896484375,-0.03298022970557213,-0.0030918731354177,0.006764021702110767,129.8500518798828
0.4112,0.6310147047042847,2.9209377765655518,-39.53434753417969,-0.48189297318458557,0.10954161733388901,9.806734085083008,-0.00033083479502238333,-0.00022368525969795883,0.00031814162502996624,2,30.000003814697266,30.0000057220459,1269.8743896484375,-0.03258756920695305,-0.0030119793955236673,0.006776382680982351,129.84706115722656
0.4113,0.6311676502227783,2.9209280014038086,-39.54144287109375,-0.4667308032512665,0.08138370513916016,9.815709114074707,-0.0006047741626389325,-0.00029927672585472465,0.00033714278833940625,2,30.000003814697266,30.0000057220459,1269.8743896484375,-0.032235175371170044,-0.0032370630651712418,0.006790274288505316,129.84576416015625
0.612,0.6304888725280762,2.9205453395843506,-39.56474304199219,-0.5227485299110413,0.10242022573947906,9.808937072753906,-0.00014531140914186835,0.00024763515102677047,0.0004022743960376829,2,30.000003814697266,30.0000057220459,1269.8743896484375,-0.031729474663734436,-0.003717853222042322,0.006788481492549181,129.85366821289062
0.6121,0.6303449869155884,2.9206745624542236,-39.57261657714844,-0.5179638266563416,0.1188526377081871,9.81342887878418,0.0003539059835020453,-8.892722689779475e-05,0.0004076971672475338,2,30.000003814697266,30.0000057220459,1269.8743896484375,-0.03162294998764992,-0.0035823453217744827,0.006830819882452488,129.8558807373047
0.6121,0.6304934024810791,2.9208321571350098,-39.58045959472656,-0.49731895327568054,0.12349118292331696,9.808954238891602,0.0005491838091984391,-0.0002108026819769293,0.0003072444233112037,2,30.000003814697266,30.0000057220459,1269.8743896484375,-0.03137682005763054,-0.003432577010244131,0.006870064418762922,129.84280395507812
0.6122,0.630618691444397,2.920884370803833,-39.5955810546875,-0.47602009773254395,0.10745546966791153,9.815876960754395,-0.00046214894973672926,-1.1954703040828463e-05,0.0003115134022664279,2,30.000003814697266,30.0000057220459,1269.8743896484375,-0.03047158755362034,-0.0034116327296942472,0.0069449059665203094,129.83448791503906
0.6123,,,,,,,,,,,,,,,,,
0.6123,0.6301514506340027,2.92008900642395,-39.623565673828125,-0.4940040111541748,0.09744352847337723,9.808506965637207,0.0005817347555421293,-6.31690927548334e-05,0.0005356574547477067,2,30.000003814697266,30.0000057220459,1269.8743896484375,-0.029463263228535652,-0.003791435854509473,0.007042396813631058,129.83627319335938
0.6124,0.6305776834487915,2.9198718070983887,-39.63008117675781,-0.48321297764778137,0.09766004979610443,9.81053352355957,0.001418610685504973,4.6914930862840265e-05,-0.00018562153854873031,2,30.000003814697266,30.0000057220459,1269.8743896484375,-0.029247617349028587,-0.00394318625330925,0.007046794053167105,129.835205078125
0.6124,0.6305776834487915,2.9198718070983887,-39.63008117675781,-0.48321297764778137,0.09766004979610443,9.81053352355957,0.001418610685504973,4.6914930862840265e-05,-0.00018562153854873031,2,30.000003814697266,30.0000057220459,1269.8743896484375,-0.029247617349028587,-0.00394318625330925,0.007046794053167105,129.835205078125
0.6125,0.6311929225921631,2.919337749481201,-39.64276123046875,-0.5145129561424255,0.1406017392873764,9.820749282836914,0.000280964799458161,0.0004132992762606591,0.00028570403810590506,2,30.000003814697266,30.0000057220459,1269.8743896484375,-0.028700873255729675,-0.004103146027773619,0.0071462225168943405,129.83258056640625
0.6125,0.631109356880188,2.9191718101501465,-39.6485595703125,-0.5093263983726501,0.1595684438943863,9.810949325561523,-0.0006550474208779633,1.6884268916328438e-05,0.00031103583751246333,2,30.000003814697266,30.0000057220459,1269.8743896484375,-0.028345150873064995,-0.0037335718516260386,0.007233453914523125,129.78945922851562
0.6126,0.6319558024406433,2.9180383682250977,-39.66270446777344,-0.46825575828552246,0.08021727949380875,9.794939041137695,0.0002383016690146178,4.5102777221472934e-05,0.00018164420907851309,2,30.000003814697266,30.0000057220459,1269.8743896484375,-0.02724497765302658,-0.0034186276607215405,0.007113976404070854,129.7811279296875
0.6126,0.6325483918190002,2.9175353050231934,-39.66685485839844,-0.4985334575176239,0.0576581247150898,9.80970573425293,0.00038549574674107134,0.00018666205869521946,0.0001451163407182321,2,30.000003814697266,30.0000057220459,1269.8743896484375,-0.027212001383304596,-0.003808945417404175,0.007041060831397772,129.7863311767578
0.6127,0.6333844065666199,2.916978120803833,-39.679107666015625,-0.510053813457489,0.09223465621471405,9.823095321655273,0.000604407221544534,0.00019588784198276699,-0.00022261989943217486,2,30.000003814697266,30.0000057220459,1269.8743896484375,-0.027968470007181168,-0.004471896216273308,0.007060927338898182,129.80502319335938
0.8134,0.6328986287117004,2.917022466659546,-39.68321228027344,-0.4985940158367157,0.12673382461071014,9.803409576416016,0.00015967265062499791,-0.00016212301852647215,-0.00021014772937633097,2,30.000003814697266,30.0000057220459,1269.8743896484375,-0.02791724167764187,-0.004469400271773338,0.0071232919581234455,129.80345153808594
0.8135,0.6323173642158508,2.917036771774292,-39.68714904785156,-0.4979466497898102,0.14599378407001495,9.812483787536621,-0.000198566893232055,4.173074194113724e-05,-0.00027255553868599236,2,30.000003814697266,30.0000057220459,1269.8743896484375,-0.027637310326099396,-0.004276453051716089,0.007126172073185444,129.7988739013672
0.8135,0.6320586204528809,2.9170377254486084,-39.690765380859375,-0.4785533547401428,0.1457916498184204,9.809624671936035,9.49600143940188e-05,-5.870183667866513e-05,4.367672954685986e-05,2,30.000003814697266,30.0000057220459,1269.8743896484375,-0.027228105813264847,-0.004057984333485365,0.007155851926654577,129.7928009033203
0.8136,0.6320077180862427,2.9169013500213623,-39.694061279296875,-0.4780025780200958,0.1273205578327179,9.799560546875,-0.0005213053082115948,6.374562508426607e-05,-2.4736193154240027e-05,2,30.000003814697266,30.0000057220459,1269.8743896484375,-0.026791509240865707,-0.00396753242239356,0.007115948013961315,129.77317810058594
0.8137,0.6319345831871033,2.916670799255371,-39.69700622558594,-0.5001528263092041,0.11372028291225433,9.812247276306152,-0.0005316095193848014,0.0001925106334965676,5.863650221726857e-05,2,30.000003814697266,30.0000057220459,1269.8743896484375,-0.026514774188399315,-0.003923596814274788,0.007087714970111847,129.77301025390625
0.8138,,,,,,,,,,,,,,,,,
0.8138,0.6313332915306091,2.9162259101867676,-39.70487976074219,-0.506974995136261,0.08007098734378815,9.80069351196289,-0.0002705457154661417,-2.945421101685497e-06,0.00019199843518435955,2,30.000003814697266,30.0000057220459,1269.8743896484375,-0.026905186474323273,-0.004111945629119873,0.007128524594008923,129.7872772216797
0.8139,0.6313332915306091,2.9162259101867676,-39.70487976074219,-0.506974995136261,0.08007098734378815,9.80069351196289,-0.0002705457154661417,-2.945421101685497e-06,0.00019199843518435955,2,30.000003814697266,30.0000057220459,1269.8743896484375,-0.026905186474323273,-0.004111945629119873,0.007128524594008923,129.7872772216797
0.8139,0.6305044293403625,2.9163405895233154,-39.71012878417969,-0.49202436208724976,0.13224203884601593,9.806344032287598,3.63923936674837e-05,3.4093372960342094e-05,4.406574134918628e-06,2,30.000003814697266,30.0000057220459,1269.8743896484375,-0.02677690051496029,-0.0042354874312877655,0.0071238987147808075,129.78372192382812
0.814,0.630399763584137,2.9163551330566406,-39.7125244140625,-0.4869016706943512,0.1216413676738739,9.800090789794922,0.00013847269292455167,5.3730513172922656e-05,-9.013407543534413e-05,2,30.000003814697266,30.0000057220459,1269.8743896484375,-0.026536257937550545,-0.004154580179601908,0.007074627093970776,129.78111267089844
0.814,0.6305074095726013,2.91629958152771,-39.714752197265625,-0.4848582446575165,0.13879376649856567,9.803943634033203,0.00041363114723935723,7.790126983309165e-05,9.342024713987485e-05,2,30.000003814697266,30.0000057220459,1269.8743896484375,-0.026237988844513893,-0.004068367183208466,0.007008822169154882,129.77590942382812
0.8141,0.6309916377067566,2.916066884994507,-39.71672058105469,-0.49575021862983704,0.13127018511295319,9.8137788772583,0.0005405263509601355,-0.00020489218877628446,0.00014166045002639294,2,30.000003814697266,30.0000057220459,1269.8743896484375,-0.02592376247048378,-0.003910367842763662,0.007003838196396828,129.77276611328125
0.8141,0.6316081285476685,2.915790557861328,-39.71852111816406,-0.5007899403572083,0.10451512038707733,9.806201934814453,0.00027074484387412667,-5.478357707033865e-05,0.00011010123853338882,2,30.000003814697266,30.0000057220459,1269.8743896484375,-0.025790881365537643,-0.0038231750950217247,0.007022846024483442,129.66934204101562
0.8141,0.6321339011192322,2.915527820587158,-39.719512939453125,-0.491754949092865,0.08759555220603943,9.810887336730957,0.0003672665625344962,-0.0002627383510116488,0.00012501439778134227,2,30.000003814697266,30.0000057220459,1269.8743896484375,-0.02582431770861149,-0.003910277504473925,0.00703157763928175,129.67080688476562
0.8142,0.6326125264167786,2.915281057357788,-39.71998596191406,-0.5035228729248047,0.07909086346626282,9.809128761291504,0.0007013391004875302,0.0001213874202221632,4.457938848645426e-05,2,30.000003814697266,30.0000057220459,1269.8743896484375,-0.0259585902094841,-0.004107695072889328,0.0070443665608763695,129.67422485351562
0.8142,0.6328446865081787,2.915091037750244,-39.71983337402344,-0.49860942363739014,0.12003424018621445,9.807395935058594,0.00016675725055392832,-0.0001030112398439087,5.427800351753831e-05,2,30.000003814697266,30.0000057220459,1269.8743896484375,-0.026217103004455566,-0.004175950773060322,0.007055522873997688,129.67599487304688
0.8143,0.6334366202354431,2.914851188659668,-39.71864318847656,-0.4876447021961212,0.12654165923595428,9.807008743286133,0.00041143811540678144,-8.798770431894809e-05,-3.69703266187571e-05,2,30.000003814697266,30.0000057220459,1269.8743896484375,-0.026118839159607887,-0.00391025235876441,0.006958578247576952,129.67181396484375
1.015,0.6344158053398132,2.914608955383301,-39.7166748046875,-0.4819161593914032,0.1116146370768547,9.804776191711426,0.0007181413238868117,-7.151049794629216e-05,4.6438864956144243e-05,2,30.000003814697266,30.0000057220459,1269.8743896484375,-0.025956999510526657,-0.0038135868962854147,0.00694799842312932,129.6680145263672
1.0151,0.6353230476379395,2.9142234325408936,-39.7144775390625,-0.49831968545913696,0.07689855247735977,9.807281494140625,4.848581011174247e-05,-9.133425919571891e-05,-5.753836376243271e-05,2,30.000003814697266,30.0000057220459,1269.8743896484375,-0.02613927610218525,-0.00409519812092185,0.006877133622765541,129.57339477539062
1.0152,,,,,,,,,,,,,,,,,
1.0152,0.6352621912956238,2.9141275882720947,-39.70552062988281,-0.4992034435272217,0.11149058490991592,9.803986549377441,0.0007569990120828152,0.00024168276286218315,-0.0002304657973581925,2,30.000003814697266,30.0000057220459,1269.8743896484375,-0.02703375741839409,-0.004482610151171684,0.0068131182342767715,129.58058166503906
1.0153,0.6352621912956238,2.9141275882720947,-39.70552062988281,-0.4992034435272217,0.11149058490991592,9.803986549377441,0.0007569990120828152,0.00024168276286218315,-0.0002304657973581925,2,30.000003814697266,30.0000057220459,1269.8743896484375,-0.02703375741839409,-0.004482610151171684,0.0068131182342767715,129.58058166503906
1.0153,0.6352068185806274,2.9142043590545654,-39.70265197753906,-0.4938122630119324,0.12448345869779587,9.820062637329102,0.00010611265315674245,-0.00023718646843917668,-0.00012846746540162712,2,30.000003814697266,30.0000057220459,1269.8743896484375,-0.02708861045539379,-0.004436383489519358,0.0068509397096931934,129.57839965820312
1.0154,0.6349979043006897,2.9142227172851562,-39.69960021972656,-0.48229557275772095,0.12642483413219452,9.818853378295898,-0.0002848947769962251,0.0001310831867158413,-0.00012918681022711098,2,30.000003814697266,30.0000057220459,1269.8743896484375,-0.027026202529668808,-0.004377820063382387,0.006953706964850426,129.5740966796875
1.0155,0.6342767477035522,2.9140470027923584,-39.69317626953125,-0.5051134824752808,0.11952007561922073,9.807363510131836,-0.0009397115209139884,0.0001811304100556299,0.00014679646119475365,2,30.000003814697266,30.0000057220459,1269.8743896484375,-0.026930758729577065,-0.004297830630093813,0.007086569909006357,129.57102966308594
1.0156,0.6342286467552185,2.9136946201324463,-39.68290710449219,-0.49624550342559814,0.08504374325275421,9.814138412475586,3.0410288673010655e-05,0.0002361994847888127,0.00019442405027803034,2,30.000003814697266,30.0000057220459,1269.8743896484375,-0.027377106249332428,-0.004316203761845827,0.00708791334182024,129.55458068847656
1.0157,0.6340479254722595,2.913778305053711,-39.6864013671875,-0.4952952265739441,0.10742790997028351,9.811829566955566,0.00010410635150037706,-0.0002414940536255017,-9.214948659064248e-05,2,30.000003814697266,30.0000057220459,1269.8743896484375,-0.02720334194600582,-0.004218097310513258,0.0070442091673612595,129.5526885986328
1.0157,0.634303092956543,2.913677930831909,-39.67942810058594,-0.4994991719722748,0.08898225426673889,9.80571460723877,0.0004304855247028172,-2.9139539037714712e-05,-9.427842087461613e-06,2,30.000003814697266,30.0000057220459,1269.8743896484375,-0.02762591280043125,-0.004498758818954229,0.00710382079705596,129.55703735351562
1.0158,0.6348243951797485,2.9138574600219727,-39.666046142578125,-0.4986559748649597,0.12170165777206421,9.81585693359375,0.0002127706684404984,5.736565071856603e-05,0.00026220959261991084,2,30.000003814697266,30.0000057220459,1269.8743896484375,-0.02830778993666172,-0.004462600685656071,0.007281844038516283,129.55801391601562
1.2164,0.6345097422599792,2.9139158725738525,-39.65338134765625,-0.499227374792099,0.09673123806715012,9.799468994140625,-0.0006714087212458253,6.481710443040356e-05,0.00014863886462990195,2,30.000003814697266,30.0000057220459,1269.8743896484375,-0.02874774858355522,-0.004386556800454855,0.007308784872293472,129.6068878173828
1.2165,0.6347809433937073,2.9138834476470947,-39.656402587890625,-0.502568781375885,0.09991661459207535,9.808541297912598,-0.0003152944555040449,-0.00035925666452385485,-3.4616612538229674e-05,2,30.000003814697266,30.0000057220459,1269.8743896484375,-0.02855347841978073,-0.004325458779931068,0.0073392512276768684,129.55755615234375
1.2165,0.6345097422599792,2.9139158725738525,-39.65338134765625,-0.499227374792099,0.09673123806715012,9.799468994140625,-0.0006714087212458253,6.481710443040356e-05,0.00014863886462990195,2,30.000003814697266,30.0000057220459,1269.8743896484375,-0.02874774858355522,-0.004386556800454855,0.007308784872293472,129.6068878173828
1.2166,,,,,,,,,,,,,,,,,
1.2166,0.6329310536384583,2.9144346714019775,-39.645477294921875,-0.5032025575637817,0.10903508961200714,9.807114601135254,-0.00023034299374558032,0.00015751771570648998,-7.452189311152324e-05,2,30.000003814697266,30.0000057220459,1269.8743896484375,-0.029657965525984764,-0.004977598320692778,0.007271380163729191,129.61570739746094
1.2167,0.6322212815284729,2.9147861003875732,-39.64286804199219,-0.4925345182418823,0.13543489575386047,9.809926986694336,0.0006164379883557558,-0.0001756838319124654,0.00015936749696265906,2,30.000003814697266,30.0000057220459,1269.8743896484375,-0.02963419258594513,-0.00487218564376235,0.007258079946041107,129.61123657226562
1.2167,0.632806122303009,2.9146368503570557,-39.638946533203125,-0.4992038905620575,0.11476758867502213,9.795809745788574,-0.0003180374624207616,-0.0001940711517818272,0.000143267578096129,2,30.000003814697266,30.0000057220459,1269.8743896484375,-0.029097164049744606,-0.004316115751862526,0.0071647390723228455,129.60015869140625
1.2168,0.6325756311416626,2.914750337600708,-39.64030456542969,-0.49988627433776855,0.14220616221427917,9.806990623474121,1.8735910998657346e-05,-9.900695295073092e-05,6.0904541896888986e-05,2,30.000003814697266,30.0000057220459,1269.8743896484375,-0.02918095327913761,-0.004502031020820141,0.007229117210954428,129.6011505126953
1.2168,0.6335945129394531,2.914293050765991,-39.635406494140625,-0.4910224676132202,0.08888906985521317,9.810208320617676,-0.00125030311755836,1.2482461897889152e-05,0.00022951819119043648,2,30.000003814697266,30.0000057220459,1269.8743896484375,-0.02945174090564251,-0.004355091135948896,0.007218635641038418,129.61282348632812
1.2169,0.633386492729187,2.9142019748687744,-39.63450622558594,-0.49847736954689026,0.10100653022527695,9.813955307006836,0.000232088947086595,-0.0005484193679876626,1.7963977370527573e-05,2,30.000003814697266,30.0000057220459,1269.8743896484375,-0.029556842520833015,-0.00448265578597784,0.00724738510325551,129.61495971679688
1.2169,0.633121132850647,2.914161205291748,-39.633758544921875,-0.4944266378879547,0.11511038988828659,9.804022789001465,-0.0009302814723923802,1.4805837963649537e-05,1.7871885575004853e-05,2,30.000003814697266,30.0000057220459,1269.8743896484375,-0.02958948165178299,-0.004514941014349461,0.007244675420224667,129.6129913330078
1.217,0.6322532892227173,2.914191722869873,-39.632415771484375,-0.4807715117931366,0.12955789268016815,9.810800552368164,-0.0016995108453556895,0.0003562596975825727,-0.00035326575743965805,2,30.000003814697266,30.0000057220459,1269.8743896484375,-0.02941640466451645,-0.004488782491534948,0.007193572819232941,129.60787963867188
1.217,0.6317850947380066,2.9141292572021484,-39.63177490234375,-0.503311276435852,0.1250191181898117,9.799161911010742,-0.0005701245390810072,-8.608117059338838e-05,-9.140116890193895e-05,2,30.000003814697266,30.0000057220459,1269.8743896484375,-0.02926279604434967,-0.0043911412358284,0.007145486306399107,129.6074676513672
1.4177,0.6318254470825195,2.913944959640503,-39.63104248046875,-0.5162355303764343,0.12824471294879913,9.807433128356934,-0.00017594323435332626,-0.00027933745877817273,-5.66589405934792e-05,2,30.000003814697266,30.0000057220459,1269.8743896484375,-0.029249928891658783,-0.004175742622464895,0.00711196381598711,129.60813903808594
1.4178,0.6356054544448853,2.913723945617676,-39.629547119140625,-0.46958041191101074,0.09693379700183868,9.804535865783691,0.0018903726013377309,0.00018800223188009113,-0.00025200736126862466,2,30.000003814697266,30.0000057220459,1269.8743896484375,-0.029539860785007477,-0.0046836636029183865,0.006773120258003473,129.673828125
1.4179,,,,,,,,,,,,,,,,,
1.4179,0.6398727893829346,2.913471221923828,-39.63206481933594,-0.49238651990890503,0.12263235449790955,9.821038246154785,0.00029089953750371933,-4.8269779654219747e-05,0.00020493405463639647,2,30.000003814697266,30.0000057220459,1269.8743896484375,-0.02891196496784687,-0.004015281330794096,0.006965772248804569,129.66421508789062
1.418,0.6404939889907837,2.9131810665130615,-39.63356018066406,-0.4974031448364258,0.08707265555858612,9.801840782165527,0.0001337337598670274,-2.8531801945064217e-05,-3.038616114281467e-06,2,30.000003814697266,30.0000057220459,1269.8743896484375,-0.028828894719481468,-0.00433079618960619,0.006884241010993719,129.66616821289062
1.4181,0.639596164226532,2.912993907928467,-39.6356201171875,-0.4942842423915863,0.08349007368087769,9.808141708374023,-8.509909093845636e-05,0.00011587351036723703,-0.00019744770543184131,2,30.000003814697266,30.0000057220459,1269.8743896484375,-0.028962556272745132,-0.0047439830377697945,0.006808576174080372,129.51515197753906
1.4181,0.6389169096946716,2.9129233360290527,-39.63578796386719,-0.5215377807617188,0.10404559969902039,9.80842399597168,-0.001692851074039936,0.0006433264934457839,-0.000737608119379729,2,30.000003814697266,30.0000057220459,1269.8743896484375,-0.029129181057214737,-0.004825137089937925,0.006798937916755676,129.51858520507812
1.4182,0.6379356384277344,2.9132773876190186,-39.63417053222656,-0.5171225070953369,0.13555219769477844,9.817439079284668,-2.318287624802906e-05,0.00026290537789463997,-0.00043389599886722863,2,30.000003814697266,30.0000057220459,1269.8743896484375,-0.029455943033099174,-0.0044503300450742245,0.006934668403118849,129.52220153808594
1.4182,0.6389294266700745,2.913684368133545,-39.630126953125,-0.4866907000541687,0.12072277814149857,9.803951263427734,0.0010208311723545194,-9.5566880190745e-05,-3.085895878029987e-05,2,30.000003814697266,30.0000057220459,1269.8743896484375,-0.029314838349819183,-0.004122147336602211,0.006938400212675333,129.515380859375
1.4183,0.6398702263832092,2.913681983947754,-39.62760925292969,-0.47917577624320984,0.12280330806970596,9.80734634399414,0.0010478799231350422,-0.00013433689309749752,-9.35044081415981e-05,2,30.000003814697266,30.0000057220459,1269.8743896484375,-0.029210157692432404,-0.004124999511986971,0.006903456524014473,129.51156616210938
1.4183,0.6408888101577759,2.9136219024658203,-39.624969482421875,-0.49388912320137024,0.12277163565158844,9.81592082977295,0.0010582050308585167,0.0002452395565342158,-0.00027136268909089267,2,30.000003814697266,30.0000057220459,1269.8743896484375,-0.02912450022995472,-0.004101213533431292,0.006927765905857086,129.50906372070312
1.619,0.6418030858039856,2.9136221408843994,-39.62214660644531,-0.5308143496513367,0.11404646188020706,9.80689525604248,0.0002962320577353239,0.0001965711999218911,-7.995009946171194e-05,2,30.000003814697266,30.0000057220459,1269.8743896484375,-0.029237497597932816,-0.003958605229854584,0.0069708446972072124,129.51223754882812
1.6191,0.6426199078559875,2.914147138595581,-39.61616516113281,-0.48305025696754456,0.08738573640584946,9.804588317871094,-0.0013262410648167133,-0.00039544410537928343,9.119024616666138e-05,2,30.000003814697266,30.0000057220459,1269.8743896484375,-0.029767457395792007,-0.003410903736948967,0.007065072655677795,129.45460510253906
1.6191,0.642497718334198,2.914273977279663,-39.612945556640625,-0.4417077302932739,0.09105260670185089,9.809460639953613,-0.0009048202773556113,-0.0005967068136669695,-0.0003929686499759555,2,30.000003814697266,30.0000057220459,1269.8743896484375,-0.029777362942695618,-0.00377759151160717,0.007037085480988026,129.4494171142578
1.6192,0.642352819442749,2.9137375354766846,-39.609619140625,-0.49522557854652405,0.1174396201968193,9.799836158752441,-0.0005655966233462095,-0.001169414957985282,-0.000665673753246665,2,30.000003814697266,30.0000057220459,1269.8743896484375,-0.029675448313355446,-0.004041881766170263,0.006978749297559261,129.44766235351562
1.6192,,,,,,,,,,,,,,,,,
1.6193,0.6446374654769897,2.910306453704834,-39.592864990234375,-0.48270183801651,0.09403891861438751,9.806994438171387,0.0006653541349805892,-0.0017775640590116382,2.3417089323629625e-05,2,30.000003814697266,30.0000057220459,1269.874267578125,-0.030374908819794655,-0.00357290031388402,0.006843147333711386,129.44895935058594
1.6193,0.6451112627983093,2.9094247817993164,-39.588897705078125,-0.4753614366054535,0.09225810319185257,9.801005363464355,-0.00026865911786444485,-0.0017325172666460276,-0.0001770529488567263,2,30.000003814697266,30.0000057220459,1269.874267578125,-0.03048211708664894,-0.00382467033341527,0.006787293124943972,129.4469451904297
1.6194,0.6439836621284485,2.906765937805176,-39.57743835449219,-0.5751760601997375,0.10588249564170837,9.820144653320312,-6.762614793842658e-05,-0.0016593842301517725,0.0005038409726694226,2,30.000003814697266,30.0000057220459,1269.874267578125,-0.03161587193608284,-0.0039990562945604324,0.006935058161616325,129.4642791748047
1.6194,0.6444820761680603,2.907470703125,-39.58123779296875,-0.5257412791252136,0.07987353950738907,9.821036338806152,-0.0008070283220149577,-0.001356205204501748,-0.00010123044194187969,2,30.000003814697266,30.0000057220459,1269.874267578125,-0.031005466356873512,-0.0041619231924414635,0.0067929476499557495,129.45407104492188
1.6195,0.6439836621284485,2.906765937805176,-39.57743835449219,-0.5751760601997375,0.10588249564170837,9.820144653320312,-6.762614793842658e-05,-0.0016593842301517725,0.0005038409726694226,2,30.000003814697266,30.0000057220459,1269.874267578125,-0.03161587193608284,-0.0039990562945604324,0.006935058161616325,129.4642791748047
1.6195,0.6434322595596313,2.9064395427703857,-39.57048034667969,-0.5102055072784424,0.14515377581119537,9.808854103088379,-0.0006870665238238871,-0.0025808962527662516,0.0017743806820362806,2,30.000003814697266,30.0000057220459,1269.874267578125,-0.03252686187624931,-0.002897105412557721,0.007019604090601206,129.6436004638672
1.6197,0.6433160901069641,2.9064066410064697,-39.568634033203125,-0.44636884331703186,0.1538664698600769,9.81131362915039,-0.0007764459005557001,-0.0021191188134253025,0.0008753425208851695,2,30.000003814697266,30.0000057220459,1269.874267578125,-0.032238952815532684,-0.0026878928765654564,0.007035282906144857,129.63140869140625
1.6197,0.6435315608978271,2.905972957611084,-39.567535400390625,-0.523422122001648,0.18583078682422638,9.79967212677002,-0.0006068837246857584,-0.0024061123840510845,0.0011505800066515803,2,30.000003814697266,30.0000057220459,1269.874267578125,-0.031747523695230484,-0.0023620242718607187,0.007007536944001913,129.62437438964844
1.6198,0.645679771900177,2.905289888381958,-39.56477355957031,-0.4053441286087036,0.051273878663778305,9.815241813659668,-0.0011260106693953276,-0.0028435562271624804,0.003176148748025298,2,30.000003814697266,30.0000057220459,1269.874267578125,-0.03161431476473808,-0.0008849021978676319,0.007161336950957775,129.62057495117188
1.6198,0.6464335322380066,2.9049508571624756,-39.56440734863281,-0.32729023694992065,-0.0384092703461647,9.791741371154785,-0.0012495588744059205,-0.0014603292802348733,0.0001384938950650394,2,30.000003814697266,30.0000057220459,1269.874267578125,-0.031318921595811844,-0.002358488505706191,0.007054192945361137,129.61244201660156
1.8205,0.64495849609375,2.9029245376586914,-39.56752014160156,-0.575850784778595,0.1111910343170166,9.817590713500977,-0.00013338084681890905,0.0004698638804256916,-0.0007074052118696272,2,30.000003814697266,30.0000057220459,1269.874267578125,-0.031271934509277344,-0.004654449876397848,0.00673498073592782,129.62220764160156
1.8206,,,,,,,,,,,,,,,,,
1.8206,0.6438431739807129,2.900649070739746,-39.57121276855469,-0.4842696487903595,0.06686089932918549,9.812016487121582,0.0007053394219838083,0.00014426848792936653,0.0011741456110030413,2,30.000003814697266,30.0000057220459,1269.874267578125,-0.030559832230210304,-0.0037979537155479193,0.006731398869305849,129.5467529296875
1.8207,0.6430108547210693,2.9010913372039795,-39.572113037109375,-0.5216377973556519,0.13402384519577026,9.811786651611328,0.0005546039319597185,-1.025573965307558e-05,0.0010569581063464284,2,30.000003814697266,30.0000057220459,1269.874267578125,-0.03042239509522915,-0.0038253292441368103,0.00669521139934659,129.54339599609375
1.8207,0.6438431739807129,2.900649070739746,-39.57121276855469,-0.4842696487903595,0.06686089932918549,9.812016487121582,0.0007053394219838083,0.00014426848792936653,0.0011741456110030413,2,30.000003814697266,30.0000057220459,1269.874267578125,-0.030559832230210304,-0.0037979537155479193,0.006731398869305849,129.5467529296875
1.8208,0.643603503704071,2.8993566036224365,-39.57093811035156,-0.5660967826843262,0.13313190639019012,9.806527137756348,-0.00020819193741772324,0.0002877993683796376,-0.0008081666892394423,2,30.000003814697266,30.0000057220459,1269.874267578125,-0.03133046254515648,-0.004388624336570501,0.006775250192731619,129.5623779296875
1.8209,0.6441461443901062,2.899611473083496,-39.57060241699219,-0.5189823508262634,0.08583643287420273,9.803357124328613,0.0001280541328014806,0.0003949463425669819,-0.0014753300929442048,2,30.000003814697266,30.0000057220459,1269.874267578125,-0.030965380370616913,-0.004614072851836681,0.006788924336433411,129.55453491210938
1.8209,0.6431485414505005,2.899439811706543,-39.57078552246094,-0.5138665437698364,0.1413445770740509,9.807207107543945,-0.00040386966429650784,-0.0005102885770611465,0.0005086841410957277,2,30.000003814697266,30.0000057220459,1269.874267578125,-0.03155391663312912,-0.003902672789990902,0.006781291216611862,129.5620880126953
1.821,0.6429064273834229,2.8994834423065186,-39.57017517089844,-0.4453831911087036,0.09768267720937729,9.799756050109863,-0.0005116116954013705,-0.00043298144009895623,0.0006874643731862307,2,30.000003814697266,30.0000057220459,1269.874267578125,-0.031446073204278946,-0.003872477449476719,0.0067344303242862225,129.51071166992188
1.821,0.6424722671508789,2.8992950916290283,-39.56941223144531,-0.4285162389278412,0.09944913536310196,9.811943054199219,-0.0007027580286376178,4.43227072537411e-05,-0.00022717687534168363,2,30.000003814697266,30.0000057220459,1269.874267578125,-0.031118696555495262,-0.004325815476477146,0.006675997748970985,129.50277709960938
1.8211,0.6419544219970703,2.8988213539123535,-39.56867980957031,-0.4761636555194855,0.12037522345781326,9.803009033203125,-0.00036724802339449525,0.0004185553116258234,-0.0007002419442869723,2,30.000003814697266,30.0000057220459,1269.874267578125,-0.03078395128250122,-0.004652723670005798,0.006645344663411379,129.49867248535156
1.8211,0.6415342092514038,2.8979852199554443,-39.566314697265625,-0.5445762872695923,0.12177512049674988,9.812753677368164,-0.00034951153793372214,-0.0002816841588355601,0.00048021203838288784,2,30.000003814697266,30.0000057220459,1269.874267578125,-0.03108866885304451,-0.003976265899837017,0.0066545018926262856,129.5093231201172
1.8211,0.6422342658042908,2.8979222774505615,-39.56306457519531,-0.46217864751815796,0.08052121847867966,9.80549144744873,0.0020729813259094954,6.319952080957592e-05,7.863686914788559e-05,2,30.000003814697266,30.0000057220459,1269.874267578125,-0.0316321887075901,-0.004257385153323412,0.006571700796484947,129.51260375976562
2.0219,0.6427130103111267,2.8979599475860596,-39.56193542480469,-0.47198206186294556,0.10101693123579025,9.81991195678711,0.0007116407505236566,0.0005096810637041926,-0.0007542426465079188,2,30.000003814697266,30.0000057220459,1269.874267578125,-0.031596459448337555,-0.0046210698783397675,0.0065906234085559845,129.50978088378906
2.022,,,,,,,,,,,,,,,,,
2.022,0.6358712315559387,2.9001944065093994,-39.55268859863281,-0.47247377038002014,0.08016355335712433,9.799294471740723,-0.0014778844779357314,0.0027204183861613274,-0.00044051610166206956,2,30.000003814697266,30.0000057220459,1269.874267578125,-0.031815435737371445,-0.005430980585515499,0.006391351576894522,129.5138702392578
2.0221,0.637245774269104,2.8993520736694336,-39.55366516113281,-0.49690014123916626,0.08768931776285172,9.811065673828125,-0.0016055223532021046,0.001885529374703765,-0.0005791631410829723,2,30.000003814697266,30.0000057220459,1269.874267578125,-0.031672317534685135,-0.005172412376850843,0.006419231183826923,129.51210021972656
2.0222,0.6358712315559387,2.9001944065093994,-39.55268859863281,-0.47247377038002014,0.08016355335712433,9.799294471740723,-0.0014778844779357314,0.0027204183861613274,-0.00044051610166206956,2,30.000003814697266,30.0000057220459,1269.874267578125,-0.031815435737371445,-0.005430980585515499,0.006391351576894522,129.5138702392578
2.0222,0.6309794187545776,2.9039647579193115,-39.5516357421875,-0.42401787638664246,0.10876056551933289,9.754111289978027,-0.006696947384625673,0.008851363323628902,-0.002065854612737894,2,30.000003814697266,30.0000057220459,1269.874267578125,-0.03145304322242737,-0.006319405045360327,0.005931635852903128,129.5048065185547
2.0223,0.6260517239570618,2.907726526260376,-39.551483154296875,-0.5375137329101562,0.08845094591379166,9.923104286193848,-0.007590945810079575,0.00863210391253233,-0.0021725783590227365,2,30.000003814697266,30.0000057220459,1269.874267578125,-0.031357359141111374,-0.006554542575031519,0.006180585827678442,129.5101776123047
2.0223,0.6280353665351868,2.905993700027466,-39.55201721191406,-0.6706859469413757,0.2144484519958496,9.797905921936035,0.003625141689553857,-0.00411073537543416,0.0024292543530464172,2,30.000003814697266,30.0000057220459,1269.874267578125,-0.03246321901679039,-0.003828994231298566,0.006891283206641674,129.59051513671875
2.0224,0.6291869282722473,2.9042983055114746,-39.55084228515625,-0.501489520072937,0.06825876981019974,9.785882949829102,-0.0007488749688491225,-0.001026709913276136,0.002250726567581296,2,30.000003814697266,30.0000057220459,1269.874267578125,-0.033057793974876404,-0.0028126321267336607,0.0067829531617462635,129.5870361328125
2.0224,0.6287269592285156,2.903925895690918,-39.550323486328125,-0.32193776965141296,0.0002650470705702901,9.808066368103027,-0.0012242497177794576,8.697695011505857e-05,-0.00034969489206559956,2,30.000003814697266,30.0000057220459,1269.874267578125,-0.03300224989652634,-0.003793043550103903,0.006608679424971342,129.58673095703125
2.0225,0.62796550989151,2.903984785079956,-39.55110168457031,-0.3803960084915161,0.028747761622071266,9.799178123474121,-0.001277716364711523,0.00019031137344427407,-0.002274143509566784,2,30.000003814697266,30.0000057220459,1269.874267578125,-0.032466717064380646,-0.005463453009724617,0.006483256816864014,129.58706665039062
2.0225,0.6283755302429199,2.904029607772827,-39.55238342285156,-0.5733526349067688,0.14289329946041107,9.803829193115234,-9.57291413214989e-05,7.230659662127437e-07,0.0011750813573598862,2,30.000003814697266,30.0000057220459,1269.874267578125,-0.03223373740911484,-0.005711113568395376,0.006487090606242418,129.58724975585938
2.0226,0.6286120414733887,2.9041011333465576,-39.55168151855469,-0.5325995683670044,0.11286349594593048,9.802483558654785,0.0006549124955199659,0.000410474807722494,0.001854805159382522,2,30.000003814697266,30.0000057220459,1269.874267578125,-0.03256211802363396,-0.005159500986337662,0.006468587089329958,129.58724975585938
2.2233,0.6287129521369934,2.9044151306152344,-39.55125427246094,-0.46997013688087463,0.10702686756849289,9.815664291381836,-0.0005795363103970885,0.0008713154238648713,-0.00030625207000412047,2,30.000003814697266,30.0000057220459,1269.874267578125,-0.032637253403663635,-0.0051022060215473175,0.0064756544306874275,129.58714294433594
2.2234,0.6261689066886902,2.9054739475250244,-39.55290222167969,-0.47505056858062744,0.09810425341129303,9.805813789367676,-0.0020875006448477507,0.0005426902207545936,0.000786216405685991,2,30.000003814697266,30.0000057220459,1269.874267578125,-0.03205462172627449,-0.004412504844367504,0.006667108740657568,129.65631103515625
2.2234,0.6272054314613342,2.9051454067230225,-39.55271911621094,-0.5180165767669678,0.1567985713481903,9.814298629760742,-0.001650962047278881,0.0007473521400243044,-0.0007575807976536453,2,30.000003814697266,30.0000057220459,1269.874267578125,-0.03216560184955597,-0.004631196614354849,0.006642856635153294,129.58843994140625
2.2235,,,,,,,,,,,,,,,,,
2.2235,0.6256763339042664,2.9070112705230713,-39.5531005859375,-0.55194091796875,0.09854357689619064,9.823301315307617,0.0018570594256743789,0.0006022245506756008,-0.0012518796138465405,2,30.000003814697266,30.0000057220459,1269.874267578125,-0.032239221036434174,-0.0063950982876122,0.006482715252786875,129.6584014892578
2.2235,0.6272860169410706,2.907118082046509,-39.55375671386719,-0.5605473518371582,0.14035148918628693,9.818746566772461,0.0006545340875163674,-0.0007722406298853457,0.0008927207672968507,2,30.000003814697266,30.0000057220459,1269.874267578125,-0.03332981839776039,-0.005003693979233503,0.0068910252302885056,129.65774536132812
2.2237,0.6276270747184753,2.9064841270446777,-39.553466796875,-0.4111674129962921,0.12287484109401703,9.801736831665039,-0.00027387787122279406,0.00023244087060447782,-0.000519256223924458,2,30.000003814697266,30.0000057220459,1269.874267578125,-0.032659079879522324,-0.0049860370345413685,0.006889317650347948,129.65676879882812
2.2237,0.6274702548980713,2.9070491790771484,-39.55464172363281,-0.5106688141822815,0.14957836270332336,9.810641288757324,-0.0002596862323116511,0.0008005895069800317,-0.00043550741975195706,2,30.000003814697266,30.0000057220459,1269.874267578125,-0.031550973653793335,-0.00506887212395668,0.006765583995729685,129.6571807861328
2.2237,0.627341091632843,2.907371759414673,-39.5548095703125,-0.5348008275032043,0.12357529252767563,9.808012008666992,-0.00023335733567364514,0.0003817976685240865,0.0004610505129676312,2,30.000003814697266,30.0000057220459,1269.874267578125,-0.0315251499414444,-0.004667922854423523,0.0067958044819533825,129.5779571533203
2.2238,0.6269049644470215,2.90755295753479,-39.55467224121094,-0.5091851949691772,0.07159388065338135,9.800019264221191,-0.0004878902400378138,-0.00011610852379817516,-0.00037233324837870896,2,30.000003814697266,30.0000057220459,1269.874267578125,-0.03214065730571747,-0.004566205199807882,0.006829272024333477,129.57846069335938
2.2239,0.6267154216766357,2.907557964324951,-39.55506896972656,-0.5115106701850891,0.08776028454303741,9.807029724121094,-0.0001262241421500221,0.00022503113723360002,-0.0007785889902152121,2,30.000003814697266,30.0000057220459,1269.874267578125,-0.032424893230199814,-0.004712461493909359,0.006791044492274523,129.57858276367188
2.224,0.6266595125198364,2.907269239425659,-39.55558776855469,-0.48301175236701965,0.12590432167053223,9.80324649810791,3.329795436002314e-05,-0.0002434042253298685,0.00019939876801799983,2,30.000003814697266,30.0000057220459,1269.874267578125,-0.032522983849048615,-0.004653491545468569,0.006781911011785269,129.57861328125
2.224,0.6266513466835022,2.9072036743164062,-39.55560302734375,-0.46139681339263916,0.10625074058771133,9.801158905029297,-0.0001623210118850693,0.00017522083362564445,0.00011945027654292062,2,30.000003814697266,30.0000057220459,1269.874267578125,-0.032294049859046936,-0.0047228955663740635,0.0067154462449252605,129.57847595214844
2.2241,0.6265974044799805,2.907296895980835,-39.55572509765625,-0.47719326615333557,0.10009356588125229,9.801861763000488,-4.478104892768897e-05,0.00033235125010833144,-0.0003122660855296999,2,30.000003814697266,30.0000057220459,1269.874267578125,-0.032098617404699326,-0.004919730592519045,0.006634654477238655,129.57858276367188
2.4249,0.6266365051269531,2.9075567722320557,-39.55604553222656,-0.5092958211898804,0.1066923439502716,9.812355995178223,0.00021134460985194892,0.0007117680506780744,-0.0004957911442033947,2,30.000003814697266,30.0000057220459,1269.874267578125,-0.0320669524371624,-0.00499889999628067,0.006617297884076834,129.5787353515625
2.425,0.6268317103385925,2.907860279083252,-39.556396484375,-0.5322480797767639,0.11236833781003952,9.812982559204102,0.00048271851846948266,0.0003714196791406721,-0.0003460243169683963,2,30.000003814697266,30.0000057220459,1269.874267578125,-0.032213903963565826,-0.004851376172155142,0.006665646098554134,129.57899475097656
2.4251,,,,,,,,,,,,,,,,,
2.4251,0.625728964805603,2.9076430797576904,-39.556793212890625,-0.49702998995780945,0.09978113323450089,9.798389434814453,-0.0007274600793607533,2.6581708880257793e-05,0.00015417170652654022,2,30.000003814697266,30.0000057220459,1269.874267578125,-0.03195875138044357,-0.004421763122081757,0.00671268068253994,129.5436553955078
2.4252,0.6254096031188965,2.907691717147827,-39.55683898925781,-0.4803818464279175,0.08128894865512848,9.808992385864258,-0.00039557775016874075,0.00028992618899792433,-3.100706453551538e-05,2,30.000003814697266,30.0000057220459,1269.874267578125,-0.03200676292181015,-0.004577684681862593,0.006657145917415619,129.5438995361328
2.4252,0.6253523826599121,2.907932758331299,-39.55699157714844,-0.4814037084579468,0.07417735457420349,9.805830955505371,0.00022628648730460554,0.0006838060799054801,-0.00016599702939856797,2,30.000003814697266,30.0000057220459,1269.874267578125,-0.032074108719825745,-0.004895174875855446,0.006646509747952223,129.54415893554688
2.4253,0.6263562440872192,2.908510208129883,-39.557098388671875,-0.5186654329299927,0.1323622465133667,9.804503440856934,0.00022446711955126375,-0.0003148597024846822,0.00031075396691448987,2,30.000003814697266,30.0000057220459,1269.874267578125,-0.03262462094426155,-0.004844218492507935,0.0066495370119810104,129.4568634033203
2.4253,0.6261067390441895,2.908597230911255,-39.55720520019531,-0.5205850601196289,0.12224216759204865,9.81093978881836,0.0005270003457553685,3.1848980142967775e-05,0.00030067304032854736,2,30.000003814697266,30.0000057220459,1269.874267578125,-0.03256963565945625,-0.005127178970724344,0.006631073541939259,129.45703125
2.4253,0.6263436079025269,2.9081616401672363,-39.557281494140625,-0.4702896177768707,0.12255929410457611,9.804659843444824,-0.000603396852966398,-0.00010504500096431002,-0.000278984458418563,2,30.000003814697266,30.0000057220459,1269.874267578125,-0.03238404542207718,-0.004589339252561331,0.006651393137872219,129.45651245117188
2.4254,0.6264673471450806,2.908313751220703,-39.55711364746094,-0.4921032786369324,0.12301991134881973,9.81258773803711,4.229422120261006e-05,-0.0002737095346674323,-0.0001273683155886829,2,30.000003814697266,30.0000057220459,1269.874267578125,-0.03258385509252548,-0.004614342004060745,0.006655627861618996,129.45668029785156
2.4254,0.6263436079025269,2.9081616401672363,-39.557281494140625,-0.4702896177768707,0.12255929410457611,9.804659843444824,-0.000603396852966398,-0.00010504500096431002,-0.000278984458418563,2,30.000003814697266,30.0000057220459,1269.874267578125,-0.03238404542207718,-0.004589339252561331,0.006651393137872219,129.45651245117188
2.4255,0.6260731220245361,2.9080796241760254,-39.55751037597656,-0.4918845295906067,0.1104959025979042,9.800665855407715,-0.0003779854450840503,-4.664550579036586e-05,-0.00024940853472799063,2,30.000003814697266,30.0000057220459,1269.874267578125,-0.03218841552734375,-0.004622676409780979,0.006597324274480343,129.45664978027344
2.4255,0.6259573698043823,2.9080677032470703,-39.557647705078125,-0.499083936214447,0.10353593528270721,9.803356170654297,-4.4617514504352584e-05,0.00014527898747473955,7.594897761009634e-05,2,30.000003814697266,30.0000057220459,1269.874267578125,-0.03216376155614853,-0.004628217313438654,0.006533884443342686,129.45677185058594
2.6262,0.6259692311286926,2.9081788063049316,-39.55757141113281,-0.49942469596862793,0.10760892182588577,9.80687427520752,-0.00034870486706495285,-5.8229215937899426e-05,0.00011838512000394985,2,30.000003814697266,30.0000057220459,1269.874267578125,-0.03230680525302887,-0.004674653522670269,0.006664304994046688,129.45693969726562
2.6263,0.6235750913619995,2.904802083969116,-39.5501708984375,-0.5099440217018127,0.10790718346834183,9.802135467529297,-0.00026587722823023796,-6.574926374014467e-05,-1.6562242308282293e-05,2,30.000003814697266,30.0000057220459,1269.874267578125,-0.032620929181575775,-0.004563414957374334,0.0066391900181770325,129.45701599121094
2.6264,0.621763288974762,2.9020326137542725,-39.54914855957031,-0.4859256446361542,0.09425056725740433,9.802896499633789,0.00015228976553771645,-0.00022184681438375264,6.985630170674995e-05,2,30.000003814697266,30.0000057220459,1269.874267578125,-0.03273342549800873,-0.0045401654206216335,0.006581862922757864,129.4571075439453
2.6265,,,,,,,,,,,,,,,,,
2.6265,0.6157081723213196,2.892768621444702,-39.548126220703125,-0.5026249289512634,0.11984556913375854,9.805587768554688,1.1304660802125e-05,-7.962247036630288e-05,0.00011201803863514215,2,30.000003814697266,30.0000057220459,1269.874267578125,-0.03272639214992523,-0.004159882199019194,0.006658510770648718,129.45155334472656
2.6266,0.6164053678512573,2.893847942352295,-39.54820251464844,-0.5096167922019958,0.1244642436504364,9.808845520019531,-0.00015119355521164834,-9.697823406895623e-05,9.367790880787652e-06,2,30.000003814697266,30.0000057220459,1269.874267578125,-0.03272535651922226,-0.004385341424494982,0.006656615529209375,129.45152282714844
2.6267,0.6152243614196777,2.891759157180786,-39.54801940917969,-0.4882265031337738,0.10648111253976822,9.81607723236084,0.00022279478434938937,-0.00031954230507835746,0.00016636379586998373,2,30.000003814697266,30.0000057220459,1269.874267578125,-0.032701753079891205,-0.00406776973977685,0.006671649403870106,129.45152282714844
2.6268,0.6140903234481812,2.8894035816192627,-39.54804992675781,-0.5016035437583923,0.09097009897232056,9.803509712219238,-0.00010207833111053333,-0.00016180444799829274,-0.00011592417286010459,2,30.000003814697266,30.0000057220459,1269.874267578125,-0.032770439982414246,-0.004375687800347805,0.006702962797135115,129.4512176513672
2.6268,0.6136488914489746,2.8887829780578613,-39.54798889160156,-0.48805439472198486,0.10550656914710999,9.818445205688477,-0.0002068395697278902,0.0001812542468542233,0.00022430661192629486,2,30.000003814697266,30.0000057220459,1269.874267578125,-0.032836299389600754,-0.004428233951330185,0.006723902188241482,129.3743133544922
2.6269,0.6132614612579346,2.888298988342285,-39.54792785644531,-0.4861837923526764,0.1090354472398758,9.81318187713623,1.842228630266618e-05,5.7768073020270094e-05,-8.441755926469341e-05,2,30.000003814697266,30.0000057220459,1269.874267578125,-0.032781969755887985,-0.004449783358722925,0.006791924126446247,129.3744659423828
2.6269,0.6127615571022034,2.887458086013794,-39.54803466796875,-0.5011407732963562,0.12121983617544174,9.808178901672363,5.875205897609703e-05,0.00015504374459851533,-0.00020854031026829034,2,30.000003814697266,30.0000057220459,1269.874267578125,-0.0327589213848114,-0.00439544627442956,0.006772287655621767,129.37451171875
2.627,0.6125776767730713,2.8870391845703125,-39.548095703125,-0.5159134268760681,0.128675177693367,9.800786972045898,0.000193621453945525,-0.00012022782175336033,-4.4386425201992097e-07,2,30.000003814697266,30.0000057220459,1269.874267578125,-0.03274798393249512,-0.00414722366258502,0.0067329066805541515,129.37457275390625
2.627,0.6122941374778748,2.8861382007598877,-39.54780578613281,-0.4879165291786194,0.10091656446456909,9.80029010772705,0.00018000302952714264,-5.066059202363249e-06,0.000517427921295166,2,30.000003814697266,30.0000057220459,1269.874267578125,-0.032788053154945374,-0.003914500121027231,0.006638354156166315,129.37435913085938
2.8275,0.6120469570159912,2.885625123977661,-39.54759216308594,-0.4887315630912781,0.09554823487997055,9.805076599121094,0.00019841782341245562,0.00035226609907113016,0.00011231258395127952,2,30.000003814697266,30.0000057220459,1269.874267578125,-0.03278572857379913,-0.0041930582374334335,0.0066235968843102455,129.37432861328125
2.8277,0.610664427280426,2.8852150440216064,-39.54779052734375,-0.4929497539997101,0.10029676556587219,9.8123140335083,-0.0007074347813613713,0.0004652669304050505,-0.00025348784402012825,2,30.000003814697266,30.0000057220459,1269.874267578125,-0.03291860967874527,-0.003977464511990547,0.0065699853003025055,129.4070281982422
2.8277,0.6100702285766602,2.885087013244629,-39.54801940917969,-0.5109155774116516,0.12152520567178726,9.813406944274902,-0.00022605496633332223,0.00031674635829403996,-0.00027167677762918174,2,30.000003814697266,30.0000057220459,1269.874267578125,-0.03292551636695862,-0.003876538947224617,0.006480086129158735,129.40760803222656
2.8278,0.6099501252174377,2.884911298751831,-39.54803466796875,-0.5029578804969788,0.1058574840426445,9.803085327148438,0.0002612449461594224,-0.00020435165788512677,0.00018719671061262488,2,30.000003814697266,30.0000057220459,1269.874267578125,-0.03298335522413254,-0.0037133158184587955,0.006486667785793543,129.4078369140625
2.8278,0.6099501252174377,2.884911298751831,-39.54803466796875,-0.5029578804969788,0.1058574840426445,9.803085327148438,0.0002612449461594224,-0.00020435165788512677,0.00018719671061262488,2,30.000003814697266,30.0000057220459,1269.874267578125,-0.03298335522413254,-0.0037133158184587955,0.006486667785793543,129.4078369140625
2.8279,0.6101279258728027,2.883730173110962,-39.547637939453125,-0.4994422197341919,0.09976840764284134,9.80292797088623,4.059210550622083e-05,-0.00018651322170626372,0.00041900205542333424,2,30.000003814697266,30.0000057220459,1269.874267578125,-0.0330500565469265,-0.0034648459404706955,0.00655678566545248,129.5371856689453
2.8279,0.6101279258728027,2.883730173110962,-39.547637939453125,-0.4994422197341919,0.09976840764284134,9.80292797088623,4.059210550622083e-05,-0.00018651322170626372,0.00041900205542333424,2,30.000003814697266,30.0000057220459,1269.874267578125,-0.0330500565469265,-0.0034648459404706955,0.00655678566545248,129.5371856689453
2.828,0.6099604964256287,2.883288621902466,-39.54722595214844,-0.4946659207344055,0.09490937739610672,9.808708190917969,-0.00011788230040110648,-0.0001430902339052409,0.00017170340288430452,2,30.000003814697266,30.0000057220459,1269.874267578125,-0.033249348402023315,-0.003657199675217271,0.006531713996082544,129.5370330810547
2.828,0.60959392786026,2.882734775543213,-39.54718017578125,-0.5049640536308289,0.10825702548027039,9.79837417602539,-0.0003316143120173365,-0.0003132966230623424,3.8325219065882266e-05,2,30.000003814697266,30.0000057220459,1269.874267578125,-0.03338734433054924,-0.003645505290478468,0.006477702874690294,129.53697204589844
2.828,0.6093569993972778,2.8824758529663086,-39.547119140625,-0.4879075586795807,0.1215885579586029,9.807588577270508,-0.000297508726362139,-0.00010572052997304127,0.00018445681780576706,2,30.000003814697266,30.0000057220459,1269.874267578125,-0.03336843103170395,-0.0035525993444025517,0.006422973237931728,129.53695678710938
3.029,,,,,,,,,,,,,,,,,
3.0291,0.6088465452194214,2.882434606552124,-39.54698181152344,-0.48609626293182373,0.10538025200366974,9.807722091674805,9.108305675908923e-05,0.00014431298768613487,-4.456217720871791e-05,2,30.000003814697266,30.0000057220459,1269.874267578125,-0.033543072640895844,-0.003542880294844508,0.006539660505950451,129.6309814453125
3.0292,0.6087806820869446,2.882458209991455,-39.547088623046875,-0.5023841857910156,0.11772704869508743,9.81579303741455,-0.00015443580923601985,0.00023157369287218899,-0.0002765313838608563,2,30.000003814697266,30.0000057220459,1269.874267578125,-0.03351108729839325,-0.003500782884657383,0.006567682605236769,129.63104248046875
3.0292,0.6086423397064209,2.882455825805664,-39.54710388183594,-0.5053688287734985,0.12841728329658508,9.806814193725586,-0.00020727573428303003,7.758778519928455e-05,0.00016786558262538165,2,30.000003814697266,30.0000057220459,1269.874267578125,-0.033470187336206436,-0.003303789533674717,0.006606691982597113,129.6311798095703
3.0293,0.6086107492446899,2.8824145793914795,-39.54705810546875,-0.5052803754806519,0.11702475696802139,9.804716110229492,0.00029816405731253326,5.8295237977290526e-05,1.836591400206089e-05,2,30.000003814697266,30.0000057220459,1269.874267578125,-0.03345547616481781,-0.003075801767408848,0.006596363615244627,129.63128662109375
3.0293,0.6089053750038147,2.8821523189544678,-39.546722412109375,-0.5024465918540955,0.09838023036718369,9.809524536132812,0.0002973193768411875,-0.00039966971962712705,8.23937589302659e-05,2,30.000003814697266,30.0000057220459,1269.874267578125,-0.03367175534367561,-0.002942117163911462,0.0065726712346076965,129.6377410888672
3.0294,0.6088551878929138,2.8822803497314453,-39.54902648925781,-0.5022648572921753,0.10326803475618362,9.810627937316895,0.0001025266174110584,0.00012200712080812082,0.00024974194820970297,2,30.000003814697266,30.0000057220459,1269.874267578125,-0.033692460507154465,-0.0029144270811229944,0.006590752862393856,129.642822265625
3.0294,0.6085533499717712,2.882693290710449,-39.55274963378906,-0.5064566731452942,0.11452504247426987,9.809568405151367,-0.00047037663171067834,-0.0002692689886316657,0.0003617026377469301,2,30.000003814697266,30.0000057220459,1269.874267578125,-0.0336400642991066,-0.0028151797596365213,0.006610509939491749,129.64491271972656
3.0295,0.6083704829216003,2.88330078125,-39.5572509765625,-0.5058647394180298,0.1300276666879654,9.816582679748535,-0.00039392849430441856,-0.00020770184346474707,6.897925049997866e-05,2,30.000003814697266,30.0000057220459,1269.874267578125,-0.03348260000348091,-0.0026095265056937933,0.006666809320449829,129.67466735839844
3.0296,0.6087146401405334,2.8840200901031494,-39.562652587890625,-0.4852624237537384,0.12290959060192108,9.79526138305664,-0.00030913844238966703,-0.00037619011709466577,0.00020228225912433118,2,30.000003814697266,30.0000057220459,1269.874267578125,-0.03320443257689476,-0.002414457267150283,0.00664721941575408,129.66734313964844
3.0296,0.6095492839813232,2.884514570236206,-39.56831359863281,-0.4689723551273346,0.12134247273206711,9.804591178894043,0.00010762061720015481,-0.00032904493855312467,0.00033375367638655007,2,30.000003814697266,30.0000057220459,1269.874267578125,-0.03280479460954666,-0.0023595313541591167,0.006559991277754307,129.6551513671875
3.0297,0.6119678616523743,2.884439468383789,-39.578948974609375,-0.48181843757629395,0.11272098124027252,9.805318832397461,0.00013490278797689825,0.0002037366502918303,0.0002580750733613968,2,30.000003814697266,30.0000057220459,1269.874267578125,-0.03203370049595833,-0.0023020224180072546,0.006485096178948879,129.6438446044922
3.0297,0.6141415238380432,2.8839621543884277,-39.58805847167969,-0.4998514652252197,0.07286934554576874,9.8159818649292,-0.00014315434964373708,3.606092286645435e-05,5.786777910543606e-05,2,30.000003814697266,30.0000057220459,1269.874267578125,-0.03185195103287697,-0.002479005139321089,0.006571455858647823,129.6575164794922
3.2303,0.6144610643386841,2.8838894367218018,-39.59233093261719,-0.5136546492576599,0.06567085534334183,9.817822456359863,-2.5582405214663595e-05,-6.140390178188682e-05,-3.339301474625245e-05,2,30.000003814697266,30.0000057220459,1269.874267578125,-0.032042473554611206,-0.002671266673132777,0.00666310079395771,129.67105102539062
3.2305,0.6142192482948303,2.8840837478637695,-39.59669494628906,-0.5062844157218933,0.08906968683004379,9.810033798217773,0.0001836157898651436,-0.00013472377031575888,-0.0004296733532100916,2,30.000003814697266,30.0000057220459,1269.874267578125,-0.03222367540001869,-0.0027971663512289524,0.006734014954417944,129.677978515625
3.2305,,,,,,,,,,,,,,,,,
3.2306,0.6144105195999146,2.8858237266540527,-39.60966491699219,-0.5134886503219604,0.14384758472442627,9.801945686340332,-0.0004800301103387028,-0.00013778511493001133,9.552398842060938e-05,2,30.000003814697266,30.0000057220459,1269.874267578125,-0.03137722983956337,-0.0019026544177904725,0.006707142107188702,129.5568084716797
3.2306,0.6154038906097412,2.8863608837127686,-39.609130859375,-0.5152143836021423,0.10686539858579636,9.807902336120605,-8.09001357993111e-05,4.0789371269056574e-05,0.0003238867502659559,2,30.000003814697266,30.0000057220459,1269.874267578125,-0.03142509236931801,-0.0015725077828392386,0.006688293535262346,129.5609130859375
3.2307,0.6176118850708008,2.887695074081421,-39.60710144042969,-0.48814883828163147,0.08093952387571335,9.814793586730957,-0.0007262776489369571,2.6324138161726296e-05,-0.00031417779973708093,2,30.000003814697266,30.0000057220459,1269.874267578125,-0.03167790547013283,-0.0017303235363215208,0.006713045760989189,129.5641326904297
3.2307,0.6171615123748779,2.889920234680176,-39.60368347167969,-0.5211861729621887,0.10118963569402695,9.806981086730957,-0.0010172688635066152,0.00019502344366628677,5.538302139029838e-05,2,30.000003814697266,30.0000057220459,1269.874267578125,-0.03260666877031326,-0.0018984520575031638,0.0067931972444057465,129.5845947265625
3.2309,0.6169328689575195,2.8910434246063232,-39.60276794433594,-0.5118502974510193,0.12788042426109314,9.799406051635742,0.0007561170496046543,-0.00029562177951447666,-0.00024809272144921124,2,30.000003814697266,30.0000057220459,1269.874267578125,-0.03279180824756622,-0.001688856747932732,0.006747289095073938,129.620361328125
3.231,0.6179717183113098,2.892988681793213,-39.60191345214844,-0.47444361448287964,0.14035442471504211,9.810693740844727,0.0004506988334469497,-0.0006442757439799607,-3.704312621266581e-05,2,30.000003814697266,30.0000057220459,1269.874267578125,-0.03235945105552673,-0.0012372020864859223,0.006707450374960899,129.60336303710938
3.231,0.6187460422515869,2.8935084342956543,-39.6015625,-0.4754502475261688,0.12579336762428284,9.805464744567871,-0.0006773032946512103,-0.00015239868662320077,0.0001389869285048917,2,30.000003814697266,30.0000057220459,1269.874267578125,-0.03204207494854927,-0.001127305906265974,0.006691840477287769,129.5967254638672
3.2311,0.6192014813423157,2.8939127922058105,-39.601287841796875,-0.48727917671203613,0.10750145465135574,9.81712818145752,-0.0012457327684387565,-0.00014934939099475741,-0.00017326789384242147,2,30.000003814697266,30.0000057220459,1269.874267578125,-0.031857240945100784,-0.0011135644745081663,0.006706796586513519,129.59469604492188
3.4321,0.6194849610328674,2.895357370376587,-39.60084533691406,-0.5096873641014099,0.07989221811294556,9.80759334564209,-0.0005617258721031249,-1.4876755813020281e-05,-0.00012999586760997772,2,30.000003814697266,30.0000057220459,1269.874267578125,-0.03254073113203049,-0.0009572222479619086,0.006726148072630167,129.61343383789062
3.4322,0.6194950342178345,2.896087884902954,-39.60096740722656,-0.4883056879043579,0.08623888343572617,9.816508293151855,-0.0005567333428189158,-0.0006287660216912627,0.00014196733536664397,2,30.000003814697266,30.0000057220459,1269.874267578125,-0.03273649513721466,-0.001103980466723442,0.006761330645531416,129.6151123046875
3.4322,,,,,,,,,,,,,,,,,
3.4323,0.6221175789833069,2.897700548171997,-39.603271484375,-0.49376100301742554,0.1270568072795868,9.803418159484863,0.0027931886725127697,0.0003157059836667031,7.768718205625191e-05,2,30.000003814697266,30.0000057220459,1269.874267578125,-0.0318586602807045,-0.0013972835149616003,0.006566320545971394,129.6588134765625
3.4323,0.6241386532783508,2.8978934288024902,-39.60430908203125,-0.5065869688987732,0.11117123067378998,9.810707092285156,0.0026708070654422045,0.00048331511789001524,0.0003402830334380269,2,30.000003814697266,30.0000057220459,1269.874267578125,-0.031765591353178024,-0.001253374619409442,0.006549169309437275,129.6590576171875
3.4324,0.6259210109710693,2.898167371749878,-39.60545349121094,-0.5053493976593018,0.08817800134420395,9.810097694396973,0.0017459460068494081,0.0002674478746484965,0.0002818098873831332,2,30.000003814697266,30.0000057220459,1269.874267578125,-0.03183792158961296,-0.00122969935182482,0.006577686406672001,129.6620635986328
3.4325,0.6272638440132141,2.8989224433898926,-39.6083984375,-0.5034735798835754,0.08696218580007553,9.817549705505371,0.0001460121711716056,0.0002995130780618638,5.8457342674955726e-05,2,30.000003814697266,30.0000057220459,1269.874267578125,-0.032237205654382706,-0.001390382181853056,0.006688863504678011,129.67086791992188
3.4325,0.6262891292572021,2.9000723361968994,-39.61212158203125,-0.5234373211860657,0.1141628846526146,9.827414512634277,5.3437102906173095e-05,-0.00014272819680627435,1.7512705596800515e-07,2,30.000003814697266,30.0000057220459,1269.874267578125,-0.032695870846509933,-0.0013835079735144973,0.0067526292987167835,129.6820068359375
3.4326,0.6254579424858093,2.9009811878204346,-39.614105224609375,-0.5066834688186646,0.11953567713499069,9.804654121398926,-0.001941066817380488,0.0005446188733913004,-0.00022492674179375172,2,30.000003814697266,30.0000057220459,1269.874267578125,-0.032748278230428696,-0.0011934085050597787,0.006852569058537483,129.68104553222656
3.4326,0.6248974800109863,2.9018867015838623,-39.61613464355469,-0.47178980708122253,0.127609983086586,9.825918197631836,0.0001575125934323296,-0.00018639890186022967,-0.0001604329008841887,2,30.000003814697266,30.0000057220459,1269.874267578125,-0.03255915641784668,-0.001120711793191731,0.006939463783055544,129.67665100097656
3.4327,0.624320924282074,2.9025609493255615,-39.618133544921875,-0.48501935601234436,0.1438727229833603,9.801794052124023,-0.0024550515227019787,0.0006150690605863929,-0.0003052067768294364,2,30.000003814697266,30.0000057220459,1269.874267578125,-0.03219606354832649,-0.001015548361465335,0.006991823203861713,129.72154235839844
3.4327,0.623803973197937,2.903083324432373,-39.620361328125,-0.5061612129211426,0.12598776817321777,9.8096284866333,-0.0005491733318194747,-0.0002933622454293072,-0.00014122689026407897,2,30.000003814697266,30.0000057220459,1269.874267578125,-0.03192983940243721,-0.0007972056628204882,0.006977486424148083,129.7213592529297
3.4329,0.6238335371017456,2.903482675552368,-39.622650146484375,-0.5188989043235779,0.13478687405586243,9.820106506347656,-0.0009947663638740778,0.00013115929323248565,0.00021924178872723132,2,30.000003814697266,30.0000057220459,1269.874267578125,-0.03180857002735138,-0.0005165514885447919,0.007043797522783279,129.7214813232422
3.4329,0.6240791082382202,2.9045817852020264,-39.62738037109375,-0.49016234278678894,0.09383643418550491,9.81670093536377,-0.0009658248745836318,3.853737507597543e-05,0.0001998606021516025,2,30.000003814697266,30.0000057220459,1269.874267578125,-0.031759120523929596,-0.0003339975664857775,0.007110168691724539,129.72401428222656
3.634,0.6246483325958252,2.9055747985839844,-39.632904052734375,-0.5021812319755554,0.0905337929725647,9.81043529510498,0.0012517848517745733,4.993181210011244e-05,-0.00016279359988402575,2,30.000003814697266,30.0000057220459,1269.874267578125,-0.03174816444516182,-0.0006460531731136143,0.006991733331233263,129.7277374267578
3.6341,0.625329315662384,2.9060208797454834,-39.63568115234375,-0.4935508668422699,0.085416778922081,9.801544189453125,0.0007588029839098454,-2.3392725779558532e-05,0.00024789769668132067,2,30.000003814697266,30.0000057220459,1269.874267578125,-0.03179961442947388,-0.0007900657947175205,0.006961922161281109,129.7294921875
3.6343,0.6256369948387146,2.9063544273376465,-39.638427734375,-0.505378782749176,0.1074320450425148,9.806183815002441,0.0005298890173435211,-0.00020875217160210013,0.0001514439209131524,2,30.000003814697266,30.0000057220459,1269.874267578125,-0.0318165123462677,-0.0008654655539430678,0.006926538422703743,129.7305145263672
3.6343,0.6256188750267029,2.9067320823669434,-39.64112854003906,-0.49018847942352295,0.11249123513698578,9.802851676940918,-0.00040923181222751737,-8.518141839886084e-05,0.00025211350293830037,2,30.000003814697266,30.0000057220459,1269.874267578125,-0.031736113131046295,-0.0008548760088160634,0.00688391737639904,129.72837829589844
3.6344,,,,,,,,,,,,,,,,,
3.6344,0.6262416243553162,2.908308982849121,-39.65577697753906,-0.49238264560699463,0.12155580520629883,9.804163932800293,0.0006867347401566803,4.685162639361806e-05,9.918704745359719e-05,2,30.000003814697266,30.0000057220459,1269.874267578125,-0.03084876388311386,-0.0006988758686929941,0.0068633961491286755,129.763671875
3.6344,0.6273945569992065,2.9088003635406494,-39.664703369140625,-0.5038363337516785,0.09711019694805145,9.809242248535156,-0.0002806241682264954,0.0001264136953977868,0.00033457702375017107,2,30.000003814697266,30.0000057220459,1269.874267578125,-0.030665071681141853,-0.0003661444061435759,0.0069153402000665665,129.76808166503906
3.6345,0.6271750330924988,2.908515453338623,-39.66180419921875,-0.5234774351119995,0.11326413601636887,9.810614585876465,-0.000248020573053509,-9.782941197045147e-05,0.0003526580985635519,2,30.000003814697266,30.0000057220459,1269.874267578125,-0.03061637654900551,-0.00045964017044752836,0.006887969095259905,129.76588439941406
3.6345,0.6273945569992065,2.9088003635406494,-39.664703369140625,-0.5038363337516785,0.09711019694805145,9.809242248535156,-0.0002806241682264954,0.0001264136953977868,0.00033457702375017107,2,30.000003814697266,30.0000057220459,1269.874267578125,-0.030665071681141853,-0.0003661444061435759,0.0069153402000665665,129.76808166503906
3.6346,0.6274418234825134,2.909266471862793,-39.67085266113281,-0.4974837899208069,0.07390547543764114,9.807672500610352,-0.0003869853389915079,-0.0001852916757343337,-0.0002593677490949631,2,30.000003814697266,30.0000057220459,1269.874267578125,-0.030832255259156227,-0.0005018346128053963,0.006976701784878969,129.77488708496094
3.6347,0.6264718174934387,2.910038709640503,-39.67768859863281,-0.4889202117919922,0.07342727482318878,9.805708885192871,-0.00014425972767639905,0.0001227765460498631,-0.00023755458823870867,2,30.000003814697266,30.0000057220459,1269.874267578125,-0.030953573063015938,-0.0010746847838163376,0.006841649767011404,129.83815002441406
3.6347,0.6248816847801208,2.910959243774414,-39.689910888671875,-0.5052922964096069,0.165340393781662,9.807206153869629,6.474603287642822e-05,1.2030202924506739e-05,-9.669671271694824e-05,2,30.000003814697266,30.0000057220459,1269.874267578125,-0.030274981632828712,-0.0010572921019047499,0.006764971651136875,129.82861328125
3.6348,0.6252158880233765,2.9107625484466553,-39.685791015625,-0.495810866355896,0.13204991817474365,9.809786796569824,0.00036084954626858234,0.0003915133129339665,-0.00011076386726927012,2,30.000003814697266,30.0000057220459,1269.874267578125,-0.030646534636616707,-0.0013535254402086139,0.006763147190213203,129.83392333984375
3.6348,0.624898374080658,2.911029577255249,-39.693817138671875,-0.5049614310264587,0.16921761631965637,9.813722610473633,-0.00022756992257200181,-0.00014326692325994372,-9.369776989842649e-07,2,30.000003814697266,30.0000057220459,1269.874267578125,-0.02983071282505989,-0.0005473063793033361,0.006798381917178631,129.8231658935547
3.6348,0.6258037090301514,2.9109246730804443,-39.70458984375,-0.47903528809547424,0.09339800477027893,9.806047439575195,-0.00015316986537072808,0.00011443621770013124,-6.1517062022176106e-06,2,30.000003814697266,30.0000057220459,1269.874267578125,-0.028997866436839104,-0.0004901628126390278,0.006680247373878956,129.81752014160156
3.8355,0.6254749298095703,2.9110209941864014,-39.70103454589844,-0.47959110140800476,0.10321137309074402,9.796346664428711,-0.0005180857260711491,-5.5863412853796035e-05,-3.756880323635414e-05,2,30.000003814697266,30.0000057220459,1269.874267578125,-0.029192740097641945,-0.0003086139040533453,0.006763603538274765,129.81817626953125
3.8356,,,,,,,,,,,,,,,,,
3.8356,0.6258037090301514,2.9109246730804443,-39.70458984375,-0.47903528809547424,0.09339800477027893,9.806047439575195,-0.00015316986537072808,0.00011443621770013124,-6.1517062022176106e-06,2,30.000003814697266,30.0000057220459,1269.874267578125,-0.028997866436839104,-0.0004901628126390278,0.006680247373878956,129.81752014160156
3.8357,0.6269240975379944,2.9106602668762207,-39.714508056640625,-0.5008825063705444,0.08992277830839157,9.801278114318848,1.274717396881897e-05,0.00025817519053816795,0.00014165451284497976,2,30.000003814697266,30.0000057220459,1269.874267578125,-0.02895391173660755,-0.0007474320009350777,0.006635100115090609,129.81814575195312
3.8357,0.6269375085830688,2.910705089569092,-39.71781921386719,-0.5006800293922424,0.10596214979887009,9.801173210144043,2.6558913305052556e-05,9.190128912450746e-05,-0.00022470939438790083,2,30.000003814697266,30.0000057220459,1269.874267578125,-0.028938647359609604,-0.0008233468397520483,0.006566178519278765,129.81890869140625
3.8358,0.6268510222434998,2.910660743713379,-39.721099853515625,-0.5042205452919006,0.12345829606056213,9.81875228881836,-0.00031585784745402634,-0.000186012068297714,-4.3217867641942576e-05,2,30.000003814697266,30.0000057220459,1269.874267578125,-0.028837596997618675,-0.0007466772221960127,0.006579011213034391,129.81858825683594
3.8358,0.6267839670181274,2.910383701324463,-39.726837158203125,-0.4864843785762787,0.11047980189323425,9.801841735839844,-0.0005513051874004304,-0.00010587192082311958,0.00047751746024005115,2,30.000003814697266,30.0000057220459,1269.874267578125,-0.028377963230013847,-0.0005149459466338158,0.006701727397739887,129.81346130371094
3.8359,0.627636730670929,2.9096648693084717,-39.737701416015625,-0.4970414340496063,0.0928947851061821,9.812819480895996,0.00017183714953716844,0.00024381291586905718,4.755527697852813e-05,2,30.000003814697266,30.0000057220459,1269.874267578125,-0.028051938861608505,-0.0011072397464886308,0.006611018441617489,129.81568908691406
3.836,0.6274021863937378,2.9096269607543945,-39.74024963378906,-0.5108648538589478,0.09174895286560059,9.809371948242188,-0.0006520659662783146,0.0004951773444190621,-0.00019254867220297456,2,30.000003814697266,30.0000057220459,1269.874267578125,-0.02812264673411846,-0.0011947941966354847,0.006644136738032103,129.9041290283203
3.836,0.6266527771949768,2.9096181392669678,-39.74345397949219,-0.5082882046699524,0.12025713175535202,9.808610916137695,-0.0010133424075320363,-0.00018279948562849313,-0.000246819865424186,2,30.000003814697266,30.0000057220459,1269.874267578125,-0.028139373287558556,-0.0011585889151319861,0.006662682164460421,129.90493774414062
3.8361,0.6260241866111755,2.9095373153686523,-39.746978759765625,-0.5067788362503052,0.11561325192451477,9.80146598815918,-0.0005731953424401581,-9.616815077606589e-05,-0.0001382118498440832,2,30.000003814697266,30.0000057220459,1269.874267578125,-0.028057973831892014,-0.001019200892187655,0.006641503889113665,129.90570068359375
3.8362,0.6257176995277405,2.9095399379730225,-39.75080871582031,-0.4997893273830414,0.12215591222047806,9.806639671325684,-8.730043191462755e-05,-0.00013047561515122652,-0.0003751276817638427,2,30.000003814697266,30.0000057220459,1269.874267578125,-0.027925407513976097,-0.0008944605360738933,0.006600288674235344,129.90475463867188
3.8362,0.6257225871086121,2.909572124481201,-39.75477600097656,-0.47927019000053406,0.10963056236505508,9.802384376525879,0.00013515300815925002,-5.1276623707963154e-05,-0.0001946666743606329,2,30.000003814697266,30.0000057220459,1269.874267578125,-0.027707481756806374,-0.0008662102045491338,0.006558425724506378,129.902099609375
3.8362,0.6260230541229248,2.9093446731567383,-39.76258850097656,-0.48129984736442566,0.09898866713047028,9.809195518493652,-0.00021771194587927312,0.000330650364048779,-8.609014184912667e-05,2,30.000003814697266,30.0000057220459,1269.874267578125,-0.02719476819038391,-0.0012639157939702272,0.006499727722257376,129.89768981933594
4.0369,0.6259173154830933,2.9090850353240967,-39.76655578613281,-0.5135831236839294,0.10372884571552277,9.806537628173828,0.0002499826659914106,0.0001255614624824375,-8.070877811405808e-05,2,30.000003814697266,30.0000057220459,1269.874267578125,-0.027081089094281197,-0.001333944033831358,0.006490055471658707,129.90045166015625
4.037,,,,,,,,,,,,,,,,,
4.037,0.6259159445762634,2.9091172218322754,-39.78619384765625,-0.48358750343322754,0.09518914669752121,9.815781593322754,-6.1656451180169825e-06,0.00025334322708658874,-0.00032282370375469327,2,30.000003814697266,30.0000057220459,1269.874267578125,-0.0266017597168684,-0.0010116610210388899,0.006645361892879009,129.9502716064453
4.0371,0.6259704828262329,2.909111738204956,-39.7906494140625,-0.5057476758956909,0.10408481955528259,9.808897018432617,0.00046652398305013776,0.00015767876175232232,-3.067529542022385e-05,2,30.000003814697266,30.0000057220459,1269.874267578125,-0.026475274935364723,-0.0010996387572959065,0.006680999882519245,129.9518280029297
4.0372,0.6261022090911865,2.9091551303863525,-39.7950439453125,-0.5243790149688721,0.106562040746212,9.817376136779785,0.00020539738761726767,0.00012782835983671248,0.0001629764010431245,2,30.000003814697266,30.0000057220459,1269.874267578125,-0.0264773927628994,-0.001005637808702886,0.006736444775015116,129.9556121826172
4.0372,0.6262437701225281,2.909339666366577,-39.799468994140625,-0.5148126482963562,0.09881387650966644,9.817176818847656,0.00042546470649540424,-0.00014422812091652304,0.00010094326717080548,2,30.000003814697266,30.0000057220459,1269.874267578125,-0.02654389850795269,-0.0009144270443357527,0.006838650908321142,129.95884704589844
4.0372,0.626194953918457,2.909536838531494,-39.80393981933594,-0.5146378874778748,0.10630213469266891,9.81002140045166,-0.00025769832427613437,-0.00024976025451906025,6.683082756353542e-05,2,30.000003814697266,30.0000057220459,1269.874267578125,-0.02657739631831646,-0.0008502291748300195,0.006900663487613201,129.96124267578125
4.0373,0.6257796287536621,2.9098684787750244,-39.80845642089844,-0.5015478730201721,0.12507496774196625,9.81588077545166,-0.000807459291536361,-5.231123577686958e-05,-0.00012558222806546837,2,30.000003814697266,30.0000057220459,1269.874267578125,-0.026484936475753784,-0.0007312317611649632,0.0069562108255922794,129.95993041992188
4.0373,0.6253923773765564,2.910268545150757,-39.81292724609375,-0.4950074255466461,0.1160544827580452,9.80974006652832,-0.0006201795185916126,-7.718974666204304e-05,-0.0001287171762669459,2,30.000003814697266,30.0000057220459,1269.874267578125,-0.026284700259566307,-0.0006191398715600371,0.007009867578744888,129.958740234375
4.0374,0.6251314878463745,2.9105634689331055,-39.817230224609375,-0.4837312698364258,0.10730820894241333,9.812127113342285,-0.0005996434483677149,-0.0002404989645583555,0.00021301709057297558,2,30.000003814697266,30.0000057220459,1269.874267578125,-0.026068201288580894,-0.0006281473324634135,0.007035866379737854,129.95689392089844
4.0374,0.624977171421051,2.9107892513275146,-39.82130432128906,-0.48766252398490906,0.09976986050605774,9.805522918701172,-0.00015077316493261606,0.00012414882075972855,0.00035658825072459877,2,30.000003814697266,30.0000057220459,1269.874267578125,-0.025866972282528877,-0.0007265007589012384,0.007031045854091644,129.92864990234375
4.0375,0.6249920725822449,2.9109623432159424,-39.82501220703125,-0.501222550868988,0.09194869548082352,9.820364952087402,0.00011949553299928084,-7.2849215939641e-05,0.000496504595503211,2,30.000003814697266,30.0000057220459,1269.874267578125,-0.025786142796278,-0.0008278617751784623,0.007066176272928715,129.93084716796875
4.0375,0.6249313354492188,2.91115140914917,-39.82865905761719,-0.5032950043678284,0.0971476212143898,9.811171531677246,-1.1904987331945449e-05,9.915867849485949e-05,-0.00010898902837652713,2,30.000003814697266,30.0000057220459,1269.874267578125,-0.02578684128820896,-0.0009127603843808174,0.007149656768888235,129.9324951171875
4.0377,0.624754786491394,2.9113757610321045,-39.83226013183594,-0.5079153776168823,0.10248589515686035,9.809000968933105,2.907794805651065e-05,-4.9997201131191105e-05,-9.037307609105483e-05,2,30.000003814697266,30.0000057220459,1269.874267578125,-0.025791296735405922,-0.0009329912136308849,0.00717540318146348,129.93446350097656
4.0377,0.6245258450508118,2.9115982055664062,-39.83570861816406,-0.5021212100982666,0.1068262979388237,9.80939769744873,-0.0001528294087620452,-0.00015980255557224154,-0.00010204507998423651,2,30.000003814697266,30.0000057220459,1269.874267578125,-0.025771047919988632,-0.0009063019533641636,0.007188941352069378,129.9348907470703
4.0378,0.6239877343177795,2.9122512340545654,-39.842193603515625,-0.48714175820350647,0.11352923512458801,9.809326171875,0.00014589566853828728,-0.0002044010179815814,0.0001227593602379784,2,30.000003814697266,30.0000057220459,1269.874267578125,-0.02559833973646164,-0.000928577093873173,0.007212660275399685,129.933349609375
4.2383,,,,,,,,,,,,,,,,,
4.2383,0.624221682548523,2.912243604660034,-39.85528564453125,-0.5052421689033508,0.09741286933422089,9.802556991577148,-0.00016648687596898526,0.0001683745940681547,0.00031218043295666575,2,30.000003814697266,30.0000057220459,1269.874267578125,-0.024805637076497078,-0.0007541995728388429,0.007236103992909193,129.9619903564453
4.2384,0.6238995790481567,2.9126009941101074,-39.86082458496094,-0.514236569404602,0.08602257072925568,9.808844566345215,-0.0005294355214573443,0.00021020483109168708,0.00011004699626937509,2,30.000003814697266,30.0000057220459,1269.874267578125,-0.02502296306192875,-0.0009646837133914232,0.007297603413462639,129.9700927734375
4.2384,0.6233471632003784,2.913348436355591,-39.8668212890625,-0.5056431889533997,0.10177771747112274,9.81042194366455,0.0009171703131869435,-1.9708499166881666e-05,-2.558880441938527e-05,2,30.000003814697266,30.0000057220459,1269.874267578125,-0.025297364220023155,-0.0010909740813076496,0.0073350174352526665,129.9761962890625
4.2385,0.6231345534324646,2.913980722427368,-39.872802734375,-0.48317793011665344,0.12846985459327698,9.807205200195312,0.00019600505765993148,3.9408387237926945e-05,0.0002247560623800382,2,30.000003814697266,30.0000057220459,1269.874267578125,-0.024951742962002754,-0.0011021641548722982,0.0073301903903484344,129.96884155273438
4.2385,0.6231262683868408,2.9141697883605957,-39.8756103515625,-0.49379903078079224,0.11403725296258926,9.809391975402832,0.000396143295802176,0.00010383793414803222,0.00015017394616734236,2,30.000003814697266,30.0000057220459,1269.874267578125,-0.024695899337530136,-0.0010496432660147548,0.007332647684961557,129.96719360351562
4.2385,0.6232030987739563,2.914259433746338,-39.8782958984375,-0.4801538586616516,0.11370135098695755,9.806589126586914,0.0002006965223699808,-0.00019754315144382417,0.00025529941194690764,2,30.000003814697266,30.0000057220459,1269.874267578125,-0.024492045864462852,-0.0010670686606317759,0.007325883023440838,129.96414184570312
4.2386,0.623276948928833,2.9142260551452637,-39.88343811035156,-0.5176694989204407,0.10362102091312408,9.813738822937012,-8.454173075733706e-05,7.710618228884414e-05,0.00012733337644021958,2,30.000003814697266,30.0000057220459,1269.874267578125,-0.024258628487586975,-0.0011000650702044368,0.0072969417087733746,129.97601318359375
4.2386,0.6226520538330078,2.9144766330718994,-39.888519287109375,-0.5091026425361633,0.10276678949594498,9.81197452545166,-0.0005562567384913564,-0.0003062309988308698,0.00043001730227842927,2,30.000003814697266,30.0000057220459,1269.874267578125,-0.024341993033885956,-0.0010404348140582442,0.007356970105320215,129.9798126220703
4.2387,0.6221224665641785,2.9146957397460938,-39.89361572265625,-0.49754366278648376,0.09653140604496002,9.801358222961426,-4.812883344129659e-05,-0.00014131191710475832,0.00013618999219033867,2,30.000003814697266,30.0000057220459,1269.874267578125,-0.02436760440468788,-0.0010888585820794106,0.007314490154385567,129.98220825195312
4.2387,0.6218608021736145,2.9148502349853516,-39.896331787109375,-0.5050478577613831,0.1172587126493454,9.812551498413086,-4.258881017449312e-05,-6.02574109507259e-05,-0.00040600833017379045,2,30.000003814697266,30.0000057220459,1269.874267578125,-0.024307643994688988,-0.001081098453141749,0.007303478661924601,129.9815216064453
4.4392,0.6216616034507751,2.915111780166626,-39.89894104003906,-0.5012383460998535,0.10458292812108994,9.80827808380127,-0.00026611622888594866,0.000122343422845006,6.563992792507634e-05,2,30.000003814697266,30.0000057220459,1269.874267578125,-0.024253088980913162,-0.001020312076434493,0.007328690495342016,129.9822540283203
4.4393,,,,,,,,,,,,,,,,,
4.4394,0.6207626461982727,2.9164352416992188,-39.9107666015625,-0.48768019676208496,0.11380369961261749,9.82099723815918,0.0001022667929646559,-0.00014514302893076092,-0.00029313648701645434,2,30.000003814697266,30.0000057220459,1269.874267578125,-0.023825064301490784,-0.0009783734567463398,0.007436030078679323,129.944091796875
4.4394,0.6208417415618896,2.916487455368042,-39.91253662109375,-0.4779849648475647,0.10968796163797379,9.804837226867676,0.00012231022992637008,-8.810168219497427e-05,4.157100192969665e-05,2,30.000003814697266,30.0000057220459,1269.874267578125,-0.02363349311053753,-0.0010377175640314817,0.007477785460650921,129.9408721923828
4.4395,0.6210999488830566,2.9162356853485107,-39.91539001464844,-0.49890968203544617,0.10853955149650574,9.80749225616455,6.51411828584969e-05,-5.8634734159568325e-05,-0.0001786655921023339,2,30.000003814697266,30.0000057220459,1269.874267578125,-0.023490464314818382,-0.0011894844938069582,0.007462730165570974,129.9410400390625
4.4395,0.6208524703979492,2.916266918182373,-39.91755676269531,-0.5057567954063416,0.1052585020661354,9.800690650939941,-0.0005532385548576713,7.151905447244644e-05,7.88042598287575e-05,2,30.000003814697266,30.0000057220459,1269.874267578125,-0.023542992770671844,-0.0012309886515140533,0.00740967458114028,129.94354248046875
4.4397,0.6205638647079468,2.9162917137145996,-39.91856384277344,-0.4956725537776947,0.09937763214111328,9.810790061950684,-0.00013914686860516667,-3.0224166039261036e-05,-8.321993664139882e-05,2,30.000003814697266,30.0000057220459,1269.874267578125,-0.023568008095026016,-0.0012460143771022558,0.007383610587567091,129.94419860839844
4.4397,0.6201594471931458,2.9164464473724365,-39.92047119140625,-0.48963865637779236,0.11474602669477463,9.802294731140137,0.00019208205048926175,-6.088274062676646e-07,-2.0518606106634252e-05,2,30.000003814697266,30.0000057220459,1269.874267578125,-0.023513279855251312,-0.0012934007681906223,0.007304827217012644,129.94276428222656
4.4397,0.6203919053077698,2.916433334350586,-39.92131042480469,-0.48718419671058655,0.10179883986711502,9.80346965789795,0.0009271496091969311,9.832976502366364e-05,-4.092525705345906e-05,2,30.000003814697266,30.0000057220459,1269.874267578125,-0.023410072550177574,-0.0013442875351756811,0.007246624678373337,129.8915557861328
4.4398,0.6207056045532227,2.916402578353882,-39.92164611816406,-0.49446752667427063,0.10631502419710159,9.808436393737793,0.0004886302049271762,0.00029238485149107873,0.0002840086817741394,2,30.000003814697266,30.0000057220459,1269.874267578125,-0.023358697071671486,-0.0014173907693475485,0.007215522229671478,129.89088439941406
4.4398,0.6208274960517883,2.91640305519104,-39.92170715332031,-0.4826758801937103,0.09662238508462906,9.818133354187012,0.00010666408343240619,0.00020889591542072594,-0.00011853706382680684,2,30.000003814697266,30.0000057220459,1269.874267578125,-0.023328538984060287,-0.0015227684052661061,0.00725427595898509,129.88987731933594
4.4399,0.6202519536018372,2.916038990020752,-39.92146301269531,-0.5707806348800659,0.1494055539369583,9.814767837524414,-0.0004627728776540607,-0.00021430879132822156,0.00021470623323693871,2,30.000003814697266,30.0000057220459,1269.874267578125,-0.023429501801729202,-0.0013463839422911406,0.007452173158526421,129.8950958251953
4.4399,0.6200575828552246,2.9168362617492676,-39.91911315917969,-0.42671456933021545,0.06170506402850151,9.795761108398438,-0.0006981195183470845,-0.0006029240903444588,-0.0001444285298930481,2,30.000003814697266,30.0000057220459,1269.874267578125,-0.023708807304501534,-0.000685620354488492,0.0075098201632499695,129.89280700683594
4.6408,0.61996990442276,2.916569948196411,-39.91984558105469,-0.4788847267627716,0.11122255772352219,9.807321548461914,-0.000730605679564178,-0.000588595459703356,0.0006149289547465742,2,30.000003814697266,30.0000057220459,1269.874267578125,-0.023851126432418823,-0.0002948345791082829,0.007597791496664286,129.8977813720703
4.6409,0.6200575828552246,2.9168362617492676,-39.91911315917969,-0.42671456933021545,0.06170506402850151,9.795761108398438,-0.0006981195183470845,-0.0006029240903444588,-0.0001444285298930481,2,30.000003814697266,30.0000057220459,1269.874267578125,-0.023708807304501534,-0.000685620354488492,0.0075098201632499695,129.89280700683594
4.641,,,,,,,,,,,,,,,,,
4.641,0.6185383200645447,2.9160499572753906,-39.917877197265625,-0.5169131755828857,0.09307508170604706,9.813302040100098,-0.0010904875816777349,-0.00022667254961561412,0.0003145693044643849,2,30.000003814697266,30.0000057220459,1269.874267578125,-0.02346913143992424,-0.001632226281799376,0.007397102192044258,129.76666259765625
4.6411,0.6168197393417358,2.9156599044799805,-39.91423034667969,-0.50949627161026,0.08261609077453613,9.81523323059082,-0.0006515037966892123,0.00014221941819414496,-0.0004716670955531299,2,30.000003814697266,30.0000057220459,1269.874267578125,-0.02399558015167713,-0.001952583552338183,0.007428113836795092,129.7734832763672
4.6412,0.6158730387687683,2.9154388904571533,-39.91203308105469,-0.5223623514175415,0.1340464949607849,9.81916332244873,-0.0006813859799876809,-0.0006381096318364143,-0.000672437425237149,2,30.000003814697266,30.0000057220459,1269.874267578125,-0.024198442697525024,-0.0018868327606469393,0.00752455648034811,129.77423095703125
4.6412,0.6150513291358948,2.9150853157043457,-39.90928649902344,-0.5187368988990784,0.152445450425148,9.812684059143066,-0.001166286412626505,-0.0009381411364302039,0.00025405114865861833,2,30.000003814697266,30.0000057220459,1269.874267578125,-0.02424541302025318,-0.0014855826739221811,0.007616841699928045,129.7720184326172
4.6413,0.6141358017921448,2.9143025875091553,-39.902099609375,-0.4557088315486908,0.1212199404835701,9.805082321166992,-0.00032423867378383875,-0.0007410009857267141,0.0005932311178185046,2,30.000003814697266,30.0000057220459,1269.874267578125,-0.023933865129947662,-0.0011237604776397347,0.007599351461976767,129.75953674316406
4.6413,0.6145684719085693,2.9123456478118896,-39.89064025878906,-0.5193406939506531,0.09532517939805984,9.814918518066406,-0.00047573645133525133,-0.0004127414431422949,0.00030457068351097405,2,30.000003814697266,30.0000057220459,1269.874267578125,-0.023752957582473755,-0.0012401649728417397,0.007464827969670296,129.7567138671875
4.6414,0.6148213148117065,2.9118435382843018,-39.88667297363281,-0.5062258243560791,0.04966127127408981,9.794596672058105,-0.0001823064376367256,-0.000430808198871091,0.0003583136713132262,2,30.000003814697266,30.0000057220459,1269.874267578125,-0.024207834154367447,-0.0013536164769902825,0.0074415793642401695,129.7056427001953
4.6415,0.614795446395874,2.91165828704834,-39.882598876953125,-0.4852689206600189,0.04092775285243988,9.806314468383789,4.396957592689432e-05,0.00034326783497817814,-4.144261765759438e-05,2,30.000003814697266,30.0000057220459,1269.874267578125,-0.024722715839743614,-0.0018046763725578785,0.0073580052703619,129.7108612060547
4.6416,0.6144060492515564,2.911593198776245,-39.878692626953125,-0.4831882417201996,0.050261009484529495,9.811440467834473,0.00028896023286506534,0.00022319701383821666,-0.0005107705947011709,2,30.000003814697266,30.0000057220459,1269.874267578125,-0.025151152163743973,-0.0023816809989511967,0.007337301503866911,129.71475219726562
4.6416,0.6131672859191895,2.911618947982788,-39.870880126953125,-0.5279428362846375,0.1346084177494049,9.806984901428223,0.0005851560272276402,0.0003509111702442169,-4.776947753271088e-05,2,30.000003814697266,30.0000057220459,1269.874267578125,-0.025750404223799706,-0.0024830889888107777,0.007338220719248056,129.71868896484375
4.6418,0.6128853559494019,2.9118587970733643,-39.866668701171875,-0.5094203948974609,0.15409603714942932,9.817575454711914,0.0004792848485521972,0.00016824589692987502,0.0001172763659269549,2,30.000003814697266,30.0000057220459,1269.874267578125,-0.025833455845713615,-0.002079632831737399,0.007392963860183954,129.71524047851562
4.8425,0.612744152545929,2.912055015563965,-39.862335205078125,-0.48103946447372437,0.14623205363750458,9.799306869506836,-0.00037107616662979126,-0.00011378749331925064,-9.732160833664238e-05,2,30.000003814697266,30.0000057220459,1269.874267578125,-0.025701671838760376,-0.0017412056913599372,0.007401639129966497,129.70831298828125
4.8426,,,,,,,,,,,,,,,,,
4.8426,0.613080620765686,2.9120893478393555,-39.84942626953125,-0.5357181429862976,0.12347621470689774,9.81709098815918,-0.0004644596192520112,-0.0005915500805713236,0.00022022378107067198,2,30.000003814697266,30.0000057220459,1269.874267578125,-0.02586931176483631,-0.00121616804972291,0.0073825903236866,129.70909118652344
4.8427,0.6138684153556824,2.911797523498535,-39.8359375,-0.47240322828292847,0.108615942299366,9.809257507324219,-0.0007359907031059265,-0.0008043487323448062,0.0006090195965953171,2,30.000003814697266,30.0000057220459,1269.874267578125,-0.02632671222090721,-0.0006852403748780489,0.007461148779839277,129.71376037597656
4.8427,0.6139450669288635,2.911627769470215,-39.83189392089844,-0.4720839262008667,0.09927519410848618,9.799468040466309,-0.0012452142545953393,-0.0006905625341460109,5.3102310630492866e-05,2,30.000003814697266,30.0000057220459,1269.874267578125,-0.026268862187862396,-0.0008391467854380608,0.007406660821288824,129.7104034423828
4.8428,0.6138209104537964,2.911384344100952,-39.82814025878906,-0.46934974193573,0.08516529202461243,9.80718994140625,-0.001196029013954103,-0.0003273120673839003,-6.514279812108725e-05,2,30.000003814697266,30.0000057220459,1269.874267578125,-0.026263652369379997,-0.001094671431928873,0.007345305755734444,129.70895385742188
4.8428,0.6134228706359863,2.9108669757843018,-39.82090759277344,-0.4921702742576599,0.060713496059179306,9.80073356628418,-0.00028314063092693686,0.00029888638528063893,0.00011509018077049404,2,30.000003814697266,30.0000057220459,1269.874267578125,-0.02662741392850876,-0.0018074512481689453,0.007202303037047386,129.71429443359375
4.8429,0.6129911541938782,2.910752058029175,-39.817657470703125,-0.5200172066688538,0.07152923941612244,9.809123992919922,-0.0003223083622287959,0.00036669449764303863,-4.418312892084941e-05,2,30.000003814697266,30.0000057220459,1269.874267578125,-0.027038469910621643,-0.0020732544362545013,0.007161237765103579,129.7210235595703
4.8429,0.6123483180999756,2.910785675048828,-39.81468200683594,-0.5084517598152161,0.1004645824432373,9.812653541564941,-0.0001396304287482053,7.660849223611876e-05,-8.268155943369493e-05,2,30.000003814697266,30.0000057220459,1269.874267578125,-0.027398688718676567,-0.002151519525796175,0.0071886335499584675,129.7234344482422
4.8429,0.6109963655471802,2.910181760787964,-39.80516052246094,-0.46094316244125366,0.1101236417889595,9.801164627075195,-0.0005826566484756768,-0.00022654638451058418,0.00042236511944793165,2,30.000003814697266,30.0000057220459,1269.8741455078125,-0.027561649680137634,-0.001994873397052288,0.0072331661358475685,129.56658935546875
4.843,0.6109963655471802,2.910181760787964,-39.80516052246094,-0.46094316244125366,0.1101236417889595,9.801164627075195,-0.0005826566484756768,-0.00022654638451058418,0.00042236511944793165,2,30.000003814697266,30.0000057220459,1269.8741455078125,-0.027561649680137634,-0.001994873397052288,0.0072331661358475685,129.56658935546875
4.843,0.6106316447257996,2.9099161624908447,-39.800537109375,-0.4567025303840637,0.11105803400278091,9.806085586547852,-0.00020227704953867942,0.00023210365907289088,-0.0001846942031988874,2,30.000003814697266,30.0000057220459,1269.8741455078125,-0.02737128920853138,-0.002198871225118637,0.007168371230363846,129.56015014648438
4.8431,0.6099907159805298,2.909123420715332,-39.79026794433594,-0.5340366363525391,0.11970412731170654,9.80632495880127,-0.0006449570064432919,0.0003758682287298143,-0.0002497469540685415,2,30.000003814697266,30.0000057220459,1269.8741455078125,-0.027455780655145645,-0.002294704085215926,0.00709632970392704,129.5617218017578
4.8431,0.6097217202186584,2.9089715480804443,-39.784515380859375,-0.5168777704238892,0.11435066163539886,9.805006980895996,-0.0005212266696617007,0.00026723110931925476,0.00022884237114340067,2,30.000003814697266,30.0000057220459,1269.8741455078125,-0.02778630331158638,-0.002018788829445839,0.007084098644554615,129.56370544433594
5.0438,0.609528660774231,2.90891695022583,-39.77851867675781,-0.5000402331352234,0.10262669622898102,9.808696746826172,-0.0007428282406181097,8.535107190255076e-05,0.0001678955741226673,2,30.000003814697266,30.0000057220459,1269.8741455078125,-0.028045309707522392,-0.001896263682283461,0.007075433619320393,129.564697265625
5.0439,,,,,,,,,,,,,,,,,
5.0439,0.6089118123054504,2.9078073501586914,-39.74290466308594,-0.49194949865341187,0.11051851511001587,9.810447692871094,0.0002017868246184662,-0.00013405598292592913,0.0003434085811022669,2,30.000003814697266,30.0000057220459,1269.8741455078125,-0.029455972835421562,-0.002204161835834384,0.006888674106448889,129.47801208496094
5.044,0.6087396740913391,2.908036470413208,-39.74955749511719,-0.49814003705978394,0.10675229132175446,9.802844047546387,0.0006093145348131657,-0.00044220962445251644,0.0001316570705967024,2,30.000003814697266,30.0000057220459,1269.8741455078125,-0.02926456741988659,-0.0022295890375971794,0.006905754096806049,129.47958374023438
5.044,0.6089118123054504,2.9078073501586914,-39.74290466308594,-0.49194949865341187,0.11051851511001587,9.810447692871094,0.0002017868246184662,-0.00013405598292592913,0.0003434085811022669,2,30.000003814697266,30.0000057220459,1269.8741455078125,-0.029455972835421562,-0.002204161835834384,0.006888674106448889,129.47801208496094
5.0441,0.6088775992393494,2.9075942039489746,-39.736083984375,-0.4763014614582062,0.1169249564409256,9.809382438659668,-0.0004397666489239782,-0.00028146838303655386,-9.092913387576118e-05,2,30.000003814697266,30.0000057220459,1269.8741455078125,-0.029527803882956505,-0.002230515703558922,0.006894001271575689,129.47352600097656
5.0442,0.608423113822937,2.907339096069336,-39.72918701171875,-0.4934874475002289,0.1063445508480072,9.814631462097168,-0.0015362224075943232,0.0003141115594189614,-0.0001603277341928333,2,30.000003814697266,30.0000057220459,1269.8741455078125,-0.029601311311125755,-0.002256300998851657,0.00692858686670661,129.47259521484375
5.0442,0.6078363060951233,2.907289981842041,-39.72227478027344,-0.493179589509964,0.1141371950507164,9.805574417114258,-0.0008931073825806379,0.0004802797921001911,-0.0002982292207889259,2,30.000003814697266,30.0000057220459,1269.8741455078125,-0.029755914583802223,-0.002242814749479294,0.006944142747670412,129.47181701660156
5.0443,0.6075685024261475,2.9072844982147217,-39.715301513671875,-0.5008984208106995,0.1081693172454834,9.815691947937012,-0.0006512364489026368,0.0004547503776848316,-5.294988295645453e-05,2,30.000003814697266,30.0000057220459,1269.8741455078125,-0.029940837994217873,-0.0021857861429452896,0.006964089348912239,129.4725799560547
5.0443,0.6074901223182678,2.9073567390441895,-39.70841979980469,-0.4888814389705658,0.08458829671144485,9.809943199157715,-0.0003456312988419086,0.000592603231780231,-0.00037128262920305133,2,30.000003814697266,30.0000057220459,1269.8741455078125,-0.03020334057509899,-0.002252931473776698,0.007008261047303677,129.47386169433594
5.0444,0.6073088645935059,2.9074625968933105,-39.70176696777344,-0.5058267116546631,0.08641558885574341,9.803800582885742,-0.0004794714041054249,0.000781178823672235,-0.000411049259128049,2,30.000003814697266,30.0000057220459,1269.8741455078125,-0.030533913522958755,-0.0023912962060421705,0.0069959936663508415,129.4772186279297
5.0444,0.6069522500038147,2.9077329635620117,-39.69525146484375,-0.49504297971725464,0.08553750813007355,9.805999755859375,-0.0005336368922144175,0.0007404261268675327,-0.00025136448675766587,2,30.000003814697266,30.0000057220459,1269.8741455078125,-0.03089594654738903,-0.0025189691223204136,0.006965623237192631,129.47935485839844
5.0444,0.6066219806671143,2.907888650894165,-39.68885803222656,-0.5144684314727783,0.11207852512598038,9.810773849487305,0.0002052307390840724,0.0003393140505068004,-1.3727151781495195e-05,2,30.000003814697266,30.0000057220459,1269.8741455078125,-0.031195078045129776,-0.0025383930187672377,0.0069621712900698185,129.4441375732422
5.0445,0.6066828370094299,2.907895088195801,-39.6822509765625,-0.50982666015625,0.13417519629001617,9.804925918579102,0.0005028432351537049,-0.0002352964656893164,0.00020152080105617642,2,30.000003814697266,30.0000057220459,1269.8741455078125,-0.03141974285244942,-0.0023197056725621223,0.006969972513616085,129.44317626953125
5.0445,0.6069526672363281,2.907808542251587,-39.67535400390625,-0.5006431937217712,0.12849196791648865,9.812016487121582,-3.6611210816772655e-05,-0.0003778384707402438,0.000713352405000478,2,30.000003814697266,30.0000057220459,1269.8741455078125,-0.031545963138341904,-0.0020583635196089745,0.006980708334594965,129.44073486328125
5.0445,0.6076633334159851,2.907529592514038,-39.66162109375,-0.47664254903793335,0.10915973037481308,9.806800842285156,-4.044341767439619e-05,-5.225028871791437e-06,-5.698015229427256e-05,2,30.000003814697266,30.0000057220459,1269.8741455078125,-0.031611938029527664,-0.001962281297892332,0.006975191179662943,129.43338012695312
5.0446,0.6080310344696045,2.9072794914245605,-39.65504455566406,-0.4918248653411865,0.09383976459503174,9.813332557678223,-0.0002449482853990048,-0.0002159112336812541,-0.00024281650257762522,2,30.000003814697266,30.0000057220459,1269.8741455078125,-0.03173457458615303,-0.0020581563003361225,0.006988268345594406,129.4336395263672
5.2453,,,,,,,,,,,,,,,,,
5.2454,0.6082611083984375,2.9084508419036865,-39.618560791015625,-0.42659035325050354,0.09473326802253723,9.808343887329102,-0.0003181757347192615,0.00024951359955593944,-0.00032135125366039574,2,30.000003814697266,30.0000057220459,1269.8741455078125,-0.03330608829855919,-0.00192884705029428,0.006857620552182198,129.44949340820312
5.2454,0.6083962321281433,2.908487319946289,-39.613372802734375,-0.4548472464084625,0.09674160182476044,9.80312442779541,2.020417741732672e-05,0.0007009691325947642,-0.00018875417299568653,2,30.000003814697266,30.0000057220459,1269.8741455078125,-0.03306442126631737,-0.002357896650210023,0.006807758938521147,129.4442901611328
5.2455,0.6085013151168823,2.9082040786743164,-39.6082763671875,-0.50349360704422,0.11083850264549255,9.811917304992676,-6.169451808091253e-06,0.00036890862975269556,-5.875996794202365e-05,2,30.000003814697266,30.0000057220459,1269.8741455078125,-0.03304741904139519,-0.0025173979811370373,0.0067836809903383255,129.44451904296875
5.2456,0.6094188690185547,2.908111095428467,-39.588958740234375,-0.5076775550842285,0.1107218936085701,9.807689666748047,0.00024056767870206386,-0.0007176699000410736,-0.0002252258127555251,2,30.000003814697266,30.0000057220459,1269.8740234375,-0.0346607007086277,-0.0016701360000297427,0.006783167831599712,129.46282958984375
5.2458,0.6094188690185547,2.908111095428467,-39.588958740234375,-0.5076775550842285,0.1107218936085701,9.807689666748047,0.00024056767870206386,-0.0007176699000410736,-0.0002252258127555251,2,30.000003814697266,30.0000057220459,1269.8740234375,-0.0346607007086277,-0.0016701360000297427,0.006783167831599712,129.46282958984375
5.2459,0.6095547080039978,2.908298969268799,-39.58479309082031,-0.4632224142551422,0.10935355722904205,9.806808471679688,-0.0004605886060744524,-0.0004700841091107577,0.0003475245030131191,2,30.000003814697266,30.0000057220459,1269.8740234375,-0.03470798209309578,-0.001687730080448091,0.006763303652405739,129.45745849609375
5.2459,0.6093217730522156,2.9080779552459717,-39.57318115234375,-0.530422568321228,0.12679505348205566,9.80221939086914,0.00021212246792856604,0.0008374714525416493,-0.0005720361950807273,2,30.000003814697266,30.0000057220459,1269.8740234375,-0.03426103666424751,-0.002439119853079319,0.006574675906449556,129.41830444335938
5.2461,0.6093331575393677,2.908280849456787,-39.57682800292969,-0.4538961946964264,0.10296645015478134,9.805608749389648,-0.0002745807287283242,0.0005405699484981596,-0.0003130628901999444,2,30.000003814697266,30.0000057220459,1269.8740234375,-0.03429697826504707,-0.002431863220408559,0.006627281196415424,129.44467163085938
5.2461,0.6093217730522156,2.9080779552459717,-39.57318115234375,-0.530422568321228,0.12679505348205566,9.80221939086914,0.00021212246792856604,0.0008374714525416493,-0.0005720361950807273,2,30.000003814697266,30.0000057220459,1269.8740234375,-0.03426103666424751,-0.002439119853079319,0.006574675906449556,129.41830444335938
5.2462,0.6094622611999512,2.90808367729187,-39.56925964355469,-0.5816247463226318,0.13854332268238068,9.8248929977417,-0.0003538281307555735,0.00035671351361088455,0.00020735480939038098,2,30.000003814697266,30.0000057220459,1269.8740234375,-0.034610968083143234,-0.0018856368260458112,0.006644830107688904,129.42628479003906
5.2462,0.610102653503418,2.909003973007202,-39.560882568359375,-0.456098735332489,0.0681721493601799,9.806650161743164,-0.00022780714789405465,-0.0003718713705893606,0.00043582587386481464,2,30.000003814697266,30.0000057220459,1269.8740234375,-0.035494670271873474,-0.001407818403095007,0.006790321785956621,129.43226623535156
5.2462,0.6101915836334229,2.9092512130737305,-39.55706787109375,-0.42762964963912964,0.04650402069091797,9.79876708984375,4.0545295632909983e-05,-6.24944077571854e-05,-0.0003294591442681849,2,30.000003814697266,30.0000057220459,1269.8740234375,-0.035526905208826065,-0.0020878640934824944,0.006704561412334442,129.42864990234375
5.2463,0.6099410653114319,2.9091129302978516,-39.55363464355469,-0.4614594280719757,0.07834529131650925,9.809176445007324,0.0002692780108191073,0.0001764766057021916,-0.0005464485730044544,2,30.000003814697266,30.0000057220459,1269.8740234375,-0.03549521788954735,-0.0027867548633366823,0.006618550047278404,129.42620849609375
5.4469,,,,,,,,,,,,,,,,,
5.4469,0.6092067360877991,2.909111976623535,-39.539581298828125,-0.48294323682785034,0.10101675242185593,9.805686950683594,-0.0004809272359125316,2.544637754908763e-05,-6.008391210343689e-05,2,30.000003814697266,30.0000057220459,1269.8740234375,-0.036327771842479706,-0.0020152360666543245,0.006766726262867451,129.43345642089844
5.447,0.6086302399635315,2.90946102142334,-39.53636169433594,-0.4440726041793823,0.08421938866376877,9.814404487609863,-0.0016750941285863519,0.00015356935909949243,-0.000382006837753579,2,30.000003814697266,30.0000057220459,1269.8740234375,-0.036288581788539886,-0.0022886856459081173,0.0067747426219284534,129.3646697998047
5.4471,0.6076603531837463,2.9095802307128906,-39.53294372558594,-0.4612262547016144,0.10312049835920334,9.794535636901855,-0.0011285782093182206,0.0007150585297495127,-0.0005630747764371336,2,30.000003814697266,30.0000057220459,1269.8740234375,-0.03612570837140083,-0.002669669222086668,0.0067165447399020195,129.3602752685547
5.4471,0.6081474423408508,2.9090793132781982,-39.51158142089844,-0.4752797484397888,0.09774098545312881,9.809038162231445,-0.0006962594343349338,-0.0007190097239799798,-0.0002530452038627118,2,30.000003814697266,30.0000057220459,1269.8740234375,-0.036885373294353485,-0.0016374669503420591,0.007025441620498896,129.3638458251953
5.4472,0.6084573268890381,2.908848762512207,-39.50311279296875,-0.4533831775188446,0.07799249142408371,9.809733390808105,7.979675865499303e-05,9.298689110437408e-05,-3.2879208447411656e-05,2,30.000003814697266,30.0000057220459,1269.8740234375,-0.036844708025455475,-0.002252543345093727,0.006893528625369072,129.3570556640625
5.4472,0.6085480451583862,2.908693313598633,-39.498870849609375,-0.47858867049217224,0.07125449180603027,9.806313514709473,-7.478358020307496e-05,0.0006947643123567104,0.00029383282526396215,2,30.000003814697266,30.0000057220459,1269.8740234375,-0.03690633550286293,-0.002677701413631439,0.006872933823615313,129.35813903808594
5.4473,0.6080958247184753,2.9084460735321045,-39.49119567871094,-0.5136162042617798,0.1059282049536705,9.805238723754883,-0.00020381182548590004,0.0006046562921255827,-2.3420408012952976e-07,2,30.000003814697266,30.0000057220459,1269.8740234375,-0.03727665916085243,-0.003065604018047452,0.00684890802949667,129.4165496826172
5.4473,0.6075366139411926,2.9081764221191406,-39.48518371582031,-0.5033801794052124,0.11161331087350845,9.817241668701172,0.00012956741556990892,-1.3673286048287991e-05,0.00012169524416094646,2,30.000003814697266,30.0000057220459,1269.8740234375,-0.037585724145174026,-0.0028097578324377537,0.006899168714880943,129.41818237304688
5.4474,0.6074914932250977,2.907975435256958,-39.48248291015625,-0.4835735261440277,0.11169145256280899,9.810355186462402,0.000155316898599267,-0.0001953317696461454,5.8683592214947566e-05,2,30.000003814697266,30.0000057220459,1269.8740234375,-0.0376131609082222,-0.0027722392696887255,0.006956954952329397,129.416015625
5.4474,0.6076242923736572,2.9076879024505615,-39.47990417480469,-0.4779781103134155,0.11875765025615692,9.8052978515625,0.0005537617253139615,-4.3477481085574254e-05,0.00029847424593754113,2,30.000003814697266,30.0000057220459,1269.8740234375,-0.03751012310385704,-0.002795126987621188,0.006947931367903948,129.4117889404297
5.648,0.608347475528717,2.9069957733154297,-39.475067138671875,-0.4934287965297699,0.12520535290241241,9.809042930603027,0.0004006649542134255,-7.259984704433009e-05,0.00011132997315144166,2,30.000003814697266,30.0000057220459,1269.8740234375,-0.03722181171178818,-0.002628503367304802,0.006922035478055477,129.4053497314453
5.6481,,,,,,,,,,,,,,,,,
5.6481,0.6102968454360962,2.9070963859558105,-39.46498107910156,-0.4501500129699707,0.09179641306400299,9.800642013549805,0.0008091421914286911,-0.0005735381273552775,0.0001848025422077626,2,30.000003814697266,30.0000057220459,1269.8740234375,-0.038245730102062225,-0.0021975981071591377,0.006857997737824917,129.4772491455078
5.6482,0.6102968454360962,2.9070963859558105,-39.46498107910156,-0.4501500129699707,0.09179641306400299,9.800642013549805,0.0008091421914286911,-0.0005735381273552775,0.0001848025422077626,2,30.000003814697266,30.0000057220459,1269.8740234375,-0.038245730102062225,-0.0021975981071591377,0.006857997737824917,129.4772491455078
5.6483,0.6108677983283997,2.9070401191711426,-39.465179443359375,-0.4761754274368286,0.10116970539093018,9.808544158935547,0.0006246498669497669,5.026907456340268e-05,-0.00048372914898209274,2,30.000003814697266,30.0000057220459,1269.8740234375,-0.0380210280418396,-0.0024697259068489075,0.006797404028475285,129.47398376464844
5.6483,0.6111416816711426,2.9069902896881104,-39.46553039550781,-0.5075368285179138,0.08911998569965363,9.817605972290039,-0.00011677282600430772,0.000126500497572124,-0.0002326255926163867,2,30.000003814697266,30.0000057220459,1269.8740234375,-0.03800871595740318,-0.0025916588492691517,0.006838059984147549,129.4765167236328
5.6484,0.6110603213310242,2.9069900512695312,-39.46575927734375,-0.5160624384880066,0.10754140466451645,9.809842109680176,-0.00011609836656134576,-4.81987081002444e-05,0.00036208124947734177,2,30.000003814697266,30.0000057220459,1269.8740234375,-0.038139503449201584,-0.0025688677560538054,0.006905995775014162,129.39883422851562
5.6484,0.6115773916244507,2.907815933227539,-39.463623046875,-0.5007574558258057,0.0919874906539917,9.80649471282959,0.0002664368657860905,-6.863175076432526e-05,-0.00010939748608507216,2,30.000003814697266,30.0000057220459,1269.8740234375,-0.038717225193977356,-0.0024737268686294556,0.006879220716655254,129.4066619873047
5.6485,0.6115521788597107,2.9081060886383057,-39.462646484375,-0.49386927485466003,0.10001770406961441,9.809272766113281,0.00037994817830622196,-0.00027673423755913973,8.834338223095983e-05,2,30.000003814697266,30.0000057220459,1269.8740234375,-0.03882388398051262,-0.0025502080097794533,0.006880737841129303,129.40626525878906
5.8492,0.6108977794647217,2.9092931747436523,-39.45597839355469,-0.5188475847244263,0.11089598387479782,9.815777778625488,9.859297279035673e-05,-0.00019146855629514903,-0.00020805995154660195,2,30.000003814697266,30.0000057220459,1269.8740234375,-0.0392068512737751,-0.0023720546159893274,0.006790153216570616,129.408447265625
5.8493,0.6108813285827637,2.9096155166625977,-39.454620361328125,-0.4895704388618469,0.09100864082574844,9.79772663116455,0.00016266058082692325,-0.0005141962901689112,4.902461660094559e-05,2,30.000003814697266,30.0000057220459,1269.8740234375,-0.039358485490083694,-0.002324582077562809,0.006788188591599464,129.4728240966797
5.8494,0.6110190153121948,2.909851312637329,-39.45381164550781,-0.4417641758918762,0.07175959646701813,9.79886245727539,0.0008209666702896357,-0.00023699265148025006,-0.0002870041353162378,2,30.000003814697266,30.0000057220459,1269.8740234375,-0.0393255352973938,-0.0026745726354420185,0.0066827465780079365,129.46832275390625
5.8495,0.6109204888343811,2.909918785095215,-39.45335388183594,-0.5199779272079468,0.13237766921520233,9.80935001373291,-0.0005089786718599498,0.0007778111030347645,-0.0004613179771695286,2,30.000003814697266,30.0000057220459,1269.8740234375,-0.03912312164902687,-0.003124333219602704,0.006656914483755827,129.4652099609375
5.8495,0.6110391616821289,2.910292625427246,-39.45289611816406,-0.5315808653831482,0.16311858594417572,9.799125671386719,0.00033674074802547693,-0.0004883025540038943,0.00039344726246781647,2,30.000003814697266,30.0000057220459,1269.8740234375,-0.03905249387025833,-0.0018388954922556877,0.006752530112862587,129.46438598632812
5.8496,0.6133624911308289,2.9101555347442627,-39.45220947265625,-0.45894545316696167,0.05878901109099388,9.810330390930176,-0.0012094964040443301,-0.0007359832525253296,-0.0002606911875773221,2,30.000003814697266,30.0000057220459,1269.8740234375,-0.038486115634441376,-0.0017734011635184288,0.006779796443879604,129.4537811279297
5.8497,0.6130446791648865,2.9104113578796387,-39.45220947265625,-0.461570680141449,0.08904117345809937,9.790082931518555,-0.0006858427659608424,-0.0007619185489602387,-0.00018760743841994554,2,30.000003814697266,30.0000057220459,1269.8740234375,-0.03859155997633934,-0.001328154350630939,0.006867015268653631,129.45433044433594
5.8497,0.6133056879043579,2.909771203994751,-39.452392578125,-0.5029885768890381,0.05826534703373909,9.788748741149902,-0.0004422358761075884,-0.00010859352187253535,-0.0002704512735363096,2,30.000003814697266,30.0000057220459,1269.8740234375,-0.03862903267145157,-0.0022225608117878437,0.006688319146633148,129.459716796875
5.8498,0.6133278012275696,2.909635305404663,-39.45263671875,-0.48748350143432617,0.07488055527210236,9.7981595993042,0.0006957535515539348,-7.954202010296285e-05,0.00013642710109706968,2,30.000003814697266,30.0000057220459,1269.8740234375,-0.038856446743011475,-0.0025406875647604465,0.006536578759551048,129.3682861328125
5.8498,0.6135854721069336,2.9096221923828125,-39.45225524902344,-0.4702308773994446,0.07604069262742996,9.804149627685547,0.0009552353294566274,0.0005644527263939381,-4.0694227209314704e-05,2,30.000003814697266,30.0000057220459,1269.8740234375,-0.03892768919467926,-0.0029059220105409622,0.006455163471400738,129.36752319335938
5.8499,0.6138045191764832,2.909437894821167,-39.450469970703125,-0.5013155341148376,0.12585803866386414,9.819046974182129,0.0011853318428620696,0.00046393004595302045,-5.214603879721835e-05,2,30.000003814697266,30.0000057220459,1269.8740234375,-0.038950756192207336,-0.003107593394815922,0.006511450745165348,129.36622619628906
5.8499,0.6145040988922119,2.909315824508667,-39.44700622558594,-0.4793955683708191,0.11996050924062729,9.799942970275879,0.0007219465915113688,0.0004207488673273474,0.0004418858152348548,2,30.000003814697266,30.0000057220459,1269.8740234375,-0.03870241343975067,-0.002732189605012536,0.006604666821658611,129.35865783691406
6.051,0.6163808703422546,2.908562421798706,-39.44038391113281,-0.5055832862854004,0.13375984132289886,9.828800201416016,0.0007832882693037391,-7.628036109963432e-05,3.45790758728981e-05,2,30.000003814697266,30.0000057220459,1269.8740234375,-0.038676369935274124,-0.0025463683996349573,0.006565747316926718,129.35690307617188
6.0511,0.6178992986679077,2.9082117080688477,-39.433746337890625,-0.4987596869468689,0.09768882393836975,9.800615310668945,-0.00021855586965102702,0.00025195861235260963,-0.0005135577521286905,2,30.000003814697266,30.0000057220459,1269.8740234375,-0.03866569325327873,-0.0025250946637243032,0.0066232397221028805,129.39620971679688
6.0513,0.6184878349304199,2.908008098602295,-39.432159423828125,-0.49627798795700073,0.10035745799541473,9.815055847167969,0.0014217122225090861,2.843166294042021e-05,-0.00014693224511574954,2,30.000003814697266,30.0000057220459,1269.8740234375,-0.03877211734652519,-0.0025826457422226667,0.006608409341424704,129.39732360839844
6.0513,0.6190500259399414,2.9078447818756104,-39.430694580078125,-0.49425166845321655,0.09780678898096085,9.804859161376953,-0.000318178121233359,0.0002930744376499206,-6.296501669567078e-05,2,30.000003814697266,30.0000057220459,1269.8740234375,-0.03885233774781227,-0.002646366134285927,0.006630029063671827,129.3976593017578
6.0514,0.6193124055862427,2.9073567390441895,-39.428009033203125,-0.49027755856513977,0.09160260856151581,9.798956871032715,0.0010131205199286342,0.00029715581331402063,0.00014538937830366194,2,30.000003814697266,30.0000057220459,1269.8740234375,-0.03892572596669197,-0.002915970515459776,0.006450333632528782,129.39805603027344
6.0514,0.6200330257415771,2.90716814994812,-39.426849365234375,-0.507774293422699,0.11290871351957321,9.810844421386719,0.0017647326458245516,0.0003397885011509061,5.3922052757116035e-05,2,30.000003814697266,30.0000057220459,1269.8740234375,-0.03898470476269722,-0.002963045844808221,0.00641004741191864,129.39849853515625
6.0515,0.6207661032676697,2.907116174697876,-39.425872802734375,-0.5551484823226929,0.14173997938632965,9.815045356750488,0.0007472566794604063,0.0004888733965344727,-0.00023803356452845037,2,30.000003814697266,30.0000057220459,1269.8740234375,-0.03911900147795677,-0.00262347050011158,0.006471725180745125,129.40234375
6.0515,0.621454656124115,2.9079973697662354,-39.422607421875,-0.45626261830329895,0.1070394441485405,9.805937767028809,-0.0006827086326666176,-0.0004359114682301879,0.0004954442847520113,2,30.000003814697266,30.0000057220459,1269.8739013671875,-0.03930973261594772,-0.0014745417283847928,0.006658842787146568,129.3662872314453
6.0516,0.621953547000885,2.908125162124634,-39.42143249511719,-0.4470535218715668,0.08912738412618637,9.803832054138184,6.31881266599521e-05,-0.0001479641068726778,-9.465128096053377e-05,2,30.000003814697266,30.0000057220459,1269.8739013671875,-0.03905237093567848,-0.0017932195914909244,0.006600819528102875,129.36138916015625
6.0516,0.6225758194923401,2.908071279525757,-39.42030334472656,-0.48223409056663513,0.09603796899318695,9.804738998413086,0.00032375985756516457,0.0003470936499070376,-0.00032933574402704835,2,30.000003814697266,30.0000057220459,1269.8739013671875,-0.03890657052397728,-0.00211421400308609,0.006545050069689751,129.36029052734375
6.0517,0.6230992674827576,2.9079904556274414,-39.41908264160156,-0.501649022102356,0.10300423204898834,9.817506790161133,0.000162080570589751,0.0002000426029553637,-1.143967529060319e-05,2,30.000003814697266,30.0000057220459,1269.8739013671875,-0.03892863541841507,-0.0022261980921030045,0.006565787363797426,129.36148071289062
